aX,aY,aZ,gX,gY,gZ
0.068,-1.527,1.110,16.968,43.518,79.163
0.207,-1.539,1.116,33.508,41.077,59.021
0.356,-1.559,1.083,37.170,36.621,36.682
0.499,-1.571,1.021,28.870,29.907,10.864
0.645,-1.458,0.947,23.621,23.621,-13.794
0.818,-1.237,0.888,32.898,18.860,-37.292
0.960,-0.963,0.810,38.086,16.235,-58.960
1.061,-0.662,0.698,28.992,11.780,-77.454
1.098,-0.342,0.602,15.259,6.775,-88.928
1.116,-0.062,0.555,6.287,4.272,-90.759
1.126,0.131,0.542,-2.258,3.174,-84.717
1.110,0.266,0.552,-16.541,2.563,-75.195
1.096,0.338,0.556,-27.344,2.991,-64.819
1.024,0.423,0.573,-32.471,5.493,-59.692
0.925,0.510,0.645,-31.006,9.827,-58.044
0.800,0.574,0.725,-26.184,12.390,-56.274
0.678,0.567,0.761,-24.963,11.353,-51.331
0.568,0.495,0.792,-30.762,9.155,-44.678
0.399,0.414,0.838,-37.231,7.996,-38.635
0.232,0.350,0.923,-36.682,10.803,-35.950
0.102,0.338,0.979,-31.494,17.273,-34.607
-0.020,0.370,1.051,-23.254,22.827,-34.180
-0.128,0.405,1.117,-11.719,25.452,-32.715
-0.200,0.434,1.138,-6.104,24.841,-28.198
-0.258,0.437,1.145,-6.104,22.095,-21.179
-0.284,0.379,1.134,-7.080,18.555,-12.390
-0.296,0.297,1.110,-10.132,15.259,-4.150
-0.311,0.197,1.091,-12.329,12.390,3.540
-0.326,0.094,1.081,-11.536,11.047,10.376
-0.344,0.017,1.084,-9.888,9.583,16.113
-0.356,-0.055,1.095,-9.827,7.019,21.484
-0.373,-0.119,1.113,-10.010,3.113,25.635
-0.375,-0.174,1.118,-7.996,-1.465,28.381
-0.355,-0.206,1.102,-3.418,-5.859,29.053
-0.312,-0.207,1.067,3.784,-8.484,27.710
-0.258,-0.199,1.031,11.047,-8.850,25.574
-0.216,-0.180,1.010,14.221,-6.836,21.912
-0.168,-0.173,1.008,15.747,-3.540,19.043
-0.109,-0.179,1.006,20.813,0.122,17.639
-0.058,-0.193,1.014,24.902,3.296,16.235
-0.012,-0.195,1.025,27.710,6.226,14.771
0.031,-0.196,1.046,31.616,9.033,13.672
0.066,-0.206,1.058,37.048,11.414,13.489
0.084,-0.224,1.057,38.330,12.390,14.038
0.112,-0.247,1.037,32.715,11.902,14.343
0.122,-0.255,1.026,22.766,9.521,15.381
0.130,-0.279,1.003,15.137,7.690,16.785
0.135,-0.275,1.004,6.958,4.456,19.348
0.144,-0.256,1.007,-2.441,-0.061,20.691
0.144,-0.239,1.000,-9.094,-3.418,21.301
0.141,-0.214,0.975,-13.123,-5.737,21.423
0.142,-0.183,0.945,-16.907,-7.324,20.996
0.130,-0.156,0.934,-19.165,-7.690,19.775
0.117,-0.138,0.940,-18.738,-7.263,18.555
0.102,-0.124,0.962,-17.761,-6.714,18.982
0.094,-0.105,0.987,-16.724,-7.324,20.508
0.093,-0.092,1.001,-12.085,-7.935,23.621
0.094,-0.089,1.010,-6.958,-10.254,27.832
0.104,-0.100,1.000,-4.822,-12.756,31.433
0.104,-0.111,0.992,-4.517,-12.878,32.654
0.083,-0.119,0.994,-4.028,-13.000,33.569
0.066,-0.111,0.994,-1.343,-12.756,35.339
0.074,-0.106,1.000,2.869,-12.939,39.978
0.073,-0.122,1.016,5.188,-13.184,42.053
0.089,-0.155,1.031,2.930,-13.916,39.246
0.081,-0.167,1.026,-6.653,-13.672,30.701
0.056,-0.141,1.003,-15.686,-11.414,18.127
0.058,-0.167,1.002,-19.165,-9.216,4.333
0.042,-0.143,0.988,-13.000,-5.066,-2.075
0.050,-0.126,0.974,-3.113,-1.526,-5.920
0.042,-0.093,0.978,0.793,0.854,-7.751
0.038,-0.055,0.981,-0.305,2.380,-7.812
0.042,-0.040,0.973,-2.625,2.441,-5.493
0.061,-0.038,0.971,-4.517,2.563,-2.319
0.045,-0.053,0.969,-8.179,2.747,0.488
0.015,-0.061,0.979,-8.911,2.991,4.456
0.018,-0.059,0.974,-6.470,3.601,8.057
0.014,-0.061,0.973,-3.296,4.517,11.841
0.012,-0.069,0.982,1.221,5.493,15.869
0.024,-0.092,0.979,4.700,6.531,18.799
0.034,-0.110,0.958,4.578,6.409,20.752
0.051,-0.138,0.964,-0.122,5.005,20.691
0.054,-0.144,0.971,-1.892,6.897,19.897
0.051,-0.155,0.985,-0.183,6.470,19.592
0.057,-0.150,1.006,0.122,5.798,18.921
0.068,-0.148,1.016,0.977,5.493,18.311
0.067,-0.141,1.024,4.028,5.493,17.700
0.078,-0.132,1.021,4.578,3.784,15.930
0.016,-0.187,1.064,0.183,0.671,14.343
0.109,-0.159,1.039,-1.282,-1.709,16.052
0.103,-0.143,1.029,-0.244,-3.418,12.756
0.102,-0.112,1.009,-0.061,-3.174,8.728
0.102,-0.124,1.018,1.770,-1.221,6.104
0.089,-0.129,1.043,2.686,0.305,4.456
0.099,-0.129,1.047,6.409,1.953,4.700
0.097,-0.116,1.044,12.024,3.784,3.418
0.092,-0.113,1.031,18.250,6.226,0.427
0.081,-0.141,1.022,23.682,8.911,-2.869
0.065,-0.141,1.015,28.076,10.559,-4.761
0.061,-0.135,1.006,27.649,11.108,-5.615
0.057,-0.130,1.001,24.475,11.963,-5.737
0.043,-0.124,1.012,22.095,12.451,-4.517
0.047,-0.129,1.008,23.010,14.404,-2.808
0.052,-0.136,1.005,26.489,16.235,-1.465
0.059,-0.142,1.006,31.860,18.066,-0.793
0.067,-0.155,1.001,34.973,18.860,-0.488
0.084,-0.179,0.978,32.288,18.127,-0.244
0.084,-0.178,0.969,20.813,14.709,1.465
0.081,-0.159,0.978,5.249,9.705,3.845
0.075,-0.137,1.000,-5.554,5.737,4.395
0.085,-0.141,1.000,-10.498,5.127,2.502
0.079,-0.152,1.008,-12.878,5.005,1.648
0.081,-0.150,1.018,-11.047,4.272,2.258
0.086,-0.155,1.024,-8.240,2.747,2.686
0.087,-0.149,1.029,-4.944,1.465,4.333
0.095,-0.150,1.026,-1.099,0.244,5.859
0.099,-0.157,1.023,0.366,-0.854,5.737
0.094,-0.159,1.020,-0.793,-2.563,5.371
0.090,-0.159,1.017,-3.418,-4.272,4.822
-0.509,0.817,1.202,-5.493,5.859,39.185
-0.535,0.641,1.177,-8.789,1.282,61.890
-0.559,0.377,1.157,-11.719,-3.418,83.801
-0.592,0.048,1.111,-20.874,-7.080,98.022
-0.629,-0.305,1.014,-32.410,-9.521,103.333
-0.654,-0.682,0.901,-39.307,-9.949,105.042
-0.700,-1.058,0.809,-37.292,-6.775,104.126
-0.652,-1.397,0.770,-25.024,-1.038,99.670
-0.510,-1.527,0.775,-6.958,5.188,92.712
-0.420,-1.410,0.851,21.240,14.465,79.651
-0.258,-1.164,1.014,53.284,26.611,62.134
-0.117,-0.862,1.176,65.430,34.973,49.133
0.053,-0.702,1.295,66.895,36.499,42.480
0.182,-0.700,1.362,55.115,31.799,37.598
0.294,-0.764,1.367,41.260,24.353,32.288
0.398,-0.829,1.334,43.152,16.541,26.367
0.488,-0.857,1.271,55.298,8.789,16.602
0.553,-0.840,1.196,66.101,2.808,3.906
0.601,-0.757,1.112,66.956,-1.892,-10.437
0.633,-0.649,1.010,50.781,-7.019,-27.161
0.686,-0.617,0.909,23.315,-12.390,-39.917
0.744,-0.560,0.787,-2.380,-16.602,-50.110
0.774,-0.400,0.711,-10.071,-15.320,-59.448
0.763,-0.176,0.712,-0.488,-8.728,-66.162
0.726,0.035,0.763,6.531,-3.479,-69.214
0.685,0.177,0.800,6.836,-1.526,-65.857
0.646,0.260,0.824,3.662,-2.075,-58.716
0.605,0.304,0.834,-0.916,-3.052,-50.110
0.550,0.291,0.864,-3.906,-2.380,-41.260
0.485,0.217,0.913,-7.324,-1.404,-33.020
0.465,0.132,0.939,-15.808,-1.831,-27.100
0.401,0.065,0.963,-20.447,-2.686,-22.827
0.340,-0.009,1.018,-14.465,-1.038,-19.104
0.297,-0.063,1.054,-6.287,0.000,-19.287
0.252,-0.092,1.062,-1.831,2.930,-24.475
0.205,-0.095,1.061,0.916,5.127,-28.625
0.168,-0.082,1.054,-0.183,3.845,-28.259
0.130,-0.084,1.042,-5.066,2.197,-27.466
0.109,-0.103,1.017,-8.911,0.854,-27.954
0.078,-0.127,0.982,-10.193,-1.343,-28.564
0.068,-0.147,0.930,-6.897,-3.479,-28.442
0.046,-0.141,0.884,-2.441,-4.211,-27.710
0.034,-0.124,0.849,1.587,-2.869,-27.466
0.019,-0.082,0.834,4.089,-1.465,-25.940
0.002,-0.054,0.829,5.066,-0.244,-22.400
0.001,-0.038,0.814,4.395,0.610,-18.311
0.013,-0.050,0.803,1.404,1.221,-15.137
0.029,-0.071,0.807,-4.333,1.892,-14.404
0.042,-0.090,0.817,-10.010,3.113,-16.296
0.050,-0.094,0.829,-13.367,4.639,-19.653
0.058,-0.096,0.843,-13.916,6.531,-22.095
0.058,-0.113,0.864,-13.245,8.057,-23.437
0.071,-0.093,0.864,-13.123,8.911,-24.048
0.074,-0.080,0.881,-10.498,9.949,-22.949
0.072,-0.068,0.908,-6.348,10.742,-21.423
0.073,-0.043,0.919,-6.775,9.888,-20.813
0.077,-0.033,0.909,-8.606,8.606,-20.813
0.083,-0.024,0.890,-9.277,7.507,-20.691
0.081,-0.000,0.887,-11.292,7.019,-21.484
0.079,0.034,0.891,-13.855,6.958,-23.621
0.074,0.045,0.896,-15.564,6.897,-25.574
0.070,0.028,0.902,-18.433,6.653,-25.940
0.061,0.025,0.921,-18.921,7.568,-24.536
0.061,0.045,0.940,-16.968,9.094,-23.682
0.057,0.079,0.959,-16.479,10.986,-23.560
0.057,0.105,0.984,-14.343,12.634,-22.522
0.057,0.102,1.016,-10.193,12.695,-19.714
0.057,0.082,1.046,-9.460,11.292,-16.602
0.066,0.069,1.060,-10.010,9.094,-12.878
0.059,0.044,1.065,-10.742,6.775,-10.803
0.039,0.032,1.066,-10.437,5.310,-9.460
0.018,0.038,1.068,-9.521,3.967,-7.568
0.006,0.052,1.068,-6.775,3.357,-6.409
-0.013,0.069,1.072,-3.662,2.808,-5.249
-0.047,0.073,1.076,-0.977,2.197,-4.211
-0.056,0.053,1.058,2.258,1.343,-2.563
-0.057,0.047,1.033,2.686,0.305,-0.610
-0.070,0.045,1.024,2.319,0.366,0.916
-0.090,0.043,1.026,1.343,1.038,0.793
-0.103,0.048,1.028,-0.732,1.160,1.343
-0.106,0.059,1.022,-1.038,0.610,3.540
-0.124,0.079,1.029,-1.099,0.305,5.981
-0.140,0.101,1.038,-0.977,0.061,7.568
-0.147,0.128,1.046,-2.258,-0.427,8.850
-0.148,0.147,1.044,-3.662,-1.465,11.353
-0.145,0.148,1.032,-3.479,-2.075,14.587
-0.132,0.133,1.015,-3.845,-2.075,17.639
-0.117,0.112,1.002,-4.150,-1.648,20.996
-0.103,0.095,1.000,-3.601,-0.366,25.513
-0.094,0.063,1.012,-2.136,0.793,29.663
-0.088,0.026,1.049,2.869,2.441,34.241
-0.084,-0.017,1.081,7.568,2.930,38.574
-0.082,-0.062,1.099,9.827,1.953,41.626
-0.092,-0.099,1.116,9.949,0.671,44.006
-0.090,-0.134,1.126,9.521,-0.793,46.326
-0.082,-0.178,1.133,7.629,-2.258,48.584
-0.078,-0.245,1.136,4.089,-3.540,49.500
-0.077,-0.324,1.137,0.854,-4.700,48.584
-0.071,-0.388,1.133,0.488,-5.859,46.692
-0.066,-0.420,1.117,1.770,-6.836,43.274
-0.051,-0.427,1.092,2.380,-8.057,39.001
-0.036,-0.437,1.058,1.709,-8.789,35.034
-0.024,-0.435,1.025,-0.305,-8.911,31.494
-0.014,-0.432,1.011,-1.892,-8.179,28.931
-0.004,-0.432,1.015,-2.747,-7.202,26.367
0.003,-0.430,1.021,-3.357,-6.104,22.583
0.016,-0.409,1.003,-3.662,-5.249,18.555
0.025,-0.370,0.989,-2.625,-4.028,13.916
0.032,-0.313,0.978,0.000,-2.075,10.132
0.036,-0.260,0.982,3.113,-0.488,7.812
0.038,-0.231,0.988,3.601,1.221,6.531
0.041,-0.202,0.980,-0.122,1.770,5.554
0.040,-0.172,0.971,-3.479,2.136,4.211
0.042,-0.159,0.968,-3.784,3.174,3.235
0.042,-0.143,0.972,-4.395,4.150,2.502
0.033,-0.125,0.987,-6.775,4.028,1.526
0.040,-0.122,0.998,-6.348,4.456,1.709
0.043,-0.121,1.004,-3.967,5.127,2.869
0.049,-0.108,1.009,-4.150,5.371,3.662
-0.490,1.266,1.142,5.066,19.409,27.283
-0.541,1.131,1.208,-8.362,15.076,56.213
-0.540,0.891,1.276,-14.648,10.986,83.862
-0.503,0.589,1.321,-17.151,5.310,107.056
-0.458,0.222,1.317,-15.259,-0.854,123.352
-0.431,-0.172,1.261,-12.695,-5.676,131.897
-0.400,-0.505,1.152,-13.062,-7.874,133.118
-0.361,-0.763,1.082,-11.475,-6.287,129.944
-0.324,-0.933,1.088,-5.249,-1.099,124.573
-0.316,-1.025,1.170,3.906,5.310,118.713
-0.297,-1.108,1.233,11.169,9.583,111.694
-0.245,-1.201,1.235,12.451,10.742,103.943
-0.168,-1.263,1.197,14.343,10.437,94.299
-0.094,-1.229,1.162,24.353,11.230,81.970
-0.062,-1.157,1.116,40.527,12.756,67.993
0.059,-1.098,1.046,55.481,12.512,55.176
0.138,-1.032,0.974,58.044,10.193,44.922
0.197,-1.000,0.889,52.307,10.010,32.715
0.254,-0.926,0.808,44.189,12.329,19.287
0.288,-0.821,0.734,34.851,12.817,8.850
0.321,-0.722,0.716,18.860,14.465,0.061
0.359,-0.705,0.741,-0.366,15.076,-2.747
0.415,-0.734,0.804,-17.456,14.771,-1.770
0.481,-0.734,0.848,-32.776,12.146,-3.967
0.519,-0.665,0.880,-44.373,8.118,-14.465
0.557,-0.547,0.881,-41.931,5.005,-28.259
0.582,-0.436,0.865,-22.827,4.211,-38.635
0.575,-0.320,0.879,-5.493,3.235,-46.509
0.587,-0.201,0.883,6.165,1.709,-50.171
0.593,-0.078,0.883,12.695,-0.305,-48.767
0.592,0.043,0.887,13.184,-1.953,-44.312
0.589,0.118,0.904,10.010,-2.991,-37.415
0.579,0.119,0.936,2.136,-4.578,-27.771
0.598,0.033,0.934,-9.888,-5.127,-18.738
0.630,-0.123,0.936,-16.968,-4.822,-12.756
0.590,-0.198,0.968,-17.639,-2.625,-14.832
0.551,-0.147,1.004,-19.958,0.366,-26.550
0.504,-0.073,1.043,-14.465,5.188,-35.950
0.456,-0.060,1.068,-1.831,5.737,-40.955
0.412,-0.079,1.053,1.648,6.104,-43.091
0.396,-0.084,1.022,-2.625,6.409,-41.443
0.376,-0.090,0.989,-5.981,4.456,-38.513
0.353,-0.091,0.956,-9.460,4.211,-41.016
0.323,-0.077,0.928,-13.855,5.920,-47.607
0.293,-0.067,0.917,-17.883,6.409,-50.781
0.273,-0.061,0.907,-18.860,5.493,-48.767
0.258,-0.056,0.893,-15.564,4.822,-45.898
0.240,-0.037,0.887,-12.024,4.211,-44.678
0.213,-0.002,0.868,-12.146,3.357,-44.617
0.210,0.026,0.843,-12.573,2.625,-43.213
0.223,0.026,0.836,-13.000,2.502,-40.283
0.228,-0.002,0.842,-14.526,2.747,-38.025
0.236,-0.006,0.840,-16.541,2.991,-38.208
0.254,0.021,0.833,-15.625,3.357,-40.344
0.252,0.070,0.843,-11.963,4.333,-42.419
0.218,0.145,0.857,-9.644,5.127,-43.457
0.193,0.199,0.869,-9.338,4.944,-43.579
0.153,0.240,0.888,-13.489,4.456,-41.504
0.146,0.239,0.901,-19.348,3.723,-38.208
0.119,0.241,0.904,-25.085,2.686,-35.400
0.102,0.237,0.911,-27.161,2.258,-32.898
0.101,0.236,0.910,-23.376,2.686,-30.029
0.106,0.230,0.920,-17.151,3.784,-27.405
0.080,0.214,0.960,-9.216,5.371,-26.184
0.066,0.224,0.996,-3.235,6.714,-25.635
0.061,0.247,1.020,0.183,7.080,-24.597
0.024,0.271,1.049,0.793,6.714,-24.048
0.007,0.284,1.062,2.075,6.226,-23.376
-0.024,0.282,1.053,-0.244,4.578,-21.973
-0.053,0.264,1.058,-2.686,3.662,-18.677
-0.078,0.222,1.075,-4.272,3.113,-13.855
-0.089,0.185,1.099,-6.531,2.380,-8.423
-0.094,0.152,1.116,-6.714,0.793,-3.174
-0.097,0.127,1.116,-5.310,-0.854,-1.160
-0.096,0.118,1.109,-3.845,-2.563,-0.610
-0.101,0.114,1.084,-0.427,-3.845,0.793
-0.114,0.107,1.060,3.662,-4.517,2.014
-0.128,0.109,1.048,3.784,-4.456,3.174
-0.129,0.095,1.041,-0.793,-4.150,5.676
-0.144,0.067,1.040,-5.737,-3.784,8.911
-0.158,0.029,1.050,-6.897,-2.808,11.780
-0.148,0.004,1.050,-7.629,-2.380,14.587
-0.126,-0.013,1.040,-8.728,-2.563,16.968
-0.112,-0.028,1.036,-7.019,-2.563,18.616
-0.104,-0.037,1.031,-4.700,-2.075,18.066
-0.095,-0.031,1.021,-3.418,-1.282,16.602
-0.090,-0.028,1.031,0.671,-0.427,16.907
-0.093,-0.027,1.048,5.127,-0.183,18.433
-0.088,-0.026,1.065,7.446,-0.549,20.325
-0.084,-0.033,1.074,8.911,-1.343,22.827
-0.067,-0.032,1.073,7.385,-3.296,25.879
-0.052,-0.040,1.073,5.859,-4.883,28.076
-0.057,-0.058,1.085,3.235,-6.958,29.663
-0.058,-0.065,1.092,-0.977,-7.874,29.907
-0.063,-0.079,1.088,-3.418,-9.583,30.334
-0.070,-0.103,1.083,-3.479,-11.108,31.128
-0.069,-0.115,1.061,-4.456,-11.841,30.579
-0.063,-0.113,1.040,-4.700,-11.292,29.297
-0.066,-0.116,1.042,-3.357,-10.498,28.992
-0.070,-0.126,1.051,-1.831,-8.728,28.503
-0.069,-0.128,1.060,-0.244,-7.263,28.015
-0.062,-0.126,1.065,2.136,-5.920,27.222
-0.054,-0.126,1.063,2.258,-4.822,25.818
-0.044,-0.138,1.056,1.404,-4.089,24.353
-0.029,-0.145,1.046,1.587,-3.113,23.315
-0.018,-0.145,1.042,3.174,-2.258,22.461
-0.012,-0.142,1.045,4.517,-0.977,21.973
-0.001,-0.147,1.040,5.005,-0.366,21.851
0.018,-0.174,1.025,5.371,-0.183,22.034
0.031,-0.201,1.006,4.883,-0.244,21.973
0.026,-0.214,1.005,4.822,0.183,20.203
0.020,-0.220,1.008,4.517,0.977,16.907
0.025,-0.210,1.003,3.662,1.038,14.160
0.032,-0.211,0.993,3.296,0.977,12.024
0.027,-0.208,0.988,1.099,0.793,10.010
0.037,-0.198,0.968,-0.122,1.343,8.301
0.033,-0.189,0.960,1.587,2.319,7.507
0.033,-0.188,0.965,1.953,2.991,6.653
0.023,-0.184,0.975,0.000,2.991,5.798
-0.400,0.920,1.201,-25.024,4.883,38.391
-0.412,0.770,1.225,-25.024,4.211,55.542
-0.420,0.590,1.275,-17.761,3.113,72.449
-0.427,0.416,1.307,-12.024,1.953,82.092
-0.407,0.258,1.272,-8.545,-1.160,87.097
-0.432,0.076,1.189,-7.690,-4.639,92.957
-0.422,-0.113,1.074,-5.676,-5.981,98.389
-0.427,-0.296,0.967,-1.526,-5.981,106.506
-0.427,-0.465,0.905,5.066,-1.770,111.572
-0.425,-0.630,0.888,11.475,4.517,113.159
-0.434,-0.785,0.903,18.188,11.169,112.793
-0.407,-0.930,0.889,21.057,17.090,109.314
-0.348,-1.034,0.885,25.330,21.729,103.882
-0.316,-1.075,0.909,32.715,26.245,96.558
-0.292,-1.071,0.965,36.438,29.114,87.708
-0.279,-1.116,0.956,42.419,29.907,78.064
-0.189,-1.129,0.977,42.847,31.250,70.007
-0.098,-1.205,0.934,41.016,26.733,62.378
-0.011,-1.221,0.901,33.936,20.935,50.232
0.090,-1.191,0.861,28.625,16.907,34.790
0.189,-1.130,0.832,28.442,15.869,18.250
0.291,-1.010,0.814,31.616,16.235,3.357
0.406,-0.825,0.799,36.621,17.029,-7.263
0.504,-0.604,0.815,38.452,18.188,-15.564
0.588,-0.423,0.828,31.128,19.409,-21.973
0.651,-0.304,0.849,15.930,18.738,-26.428
0.711,-0.259,0.887,1.160,15.625,-28.870
0.776,-0.260,0.910,-5.676,11.780,-29.175
0.838,-0.241,0.888,-12.390,8.728,-34.058
0.857,-0.174,0.882,-23.621,6.897,-43.884
0.865,-0.115,0.895,-27.649,6.409,-50.171
0.885,-0.091,0.903,-21.118,6.531,-50.476
0.900,-0.069,0.918,-10.559,6.897,-49.133
0.888,-0.031,0.949,-0.793,8.362,-50.049
0.863,0.032,0.970,4.211,10.193,-53.101
0.853,0.106,1.000,6.409,10.498,-54.688
0.810,0.153,1.002,4.517,8.911,-50.964
0.790,0.148,1.005,-2.747,8.362,-47.363
0.772,0.093,0.982,-8.545,5.737,-48.523
0.746,0.034,0.936,-13.000,6.653,-47.729
0.693,-0.003,0.899,-14.343,8.301,-46.143
0.632,0.014,0.869,-11.963,8.362,-46.326
0.577,0.062,0.851,-4.944,8.972,-47.363
0.509,0.094,0.855,2.136,10.376,-47.363
0.459,0.103,0.864,1.648,10.376,-45.166
0.419,0.107,0.872,-1.770,10.071,-40.955
0.379,0.079,0.891,-3.967,10.559,-36.377
0.352,0.026,0.918,-6.287,10.986,-32.837
0.322,-0.002,0.952,-9.338,11.536,-30.029
0.296,-0.019,0.990,-10.193,11.902,-29.114
0.284,-0.028,1.023,-9.399,10.498,-27.893
0.273,-0.022,1.039,-9.827,8.362,-27.466
0.271,0.001,1.037,-10.132,5.798,-28.381
0.297,0.040,1.013,-11.047,3.174,-30.151
0.270,0.079,0.990,-17.029,1.221,-32.288
0.257,0.125,0.966,-25.208,-0.305,-35.217
0.242,0.185,0.945,-37.537,-1.648,-38.757
0.210,0.218,0.950,-43.213,-0.854,-41.504
0.163,0.228,0.972,-43.091,0.244,-41.016
0.139,0.258,0.969,-39.612,0.488,-38.635
0.129,0.282,0.963,-31.921,0.549,-35.034
0.128,0.281,0.953,-21.240,1.160,-30.579
0.144,0.266,0.960,-9.949,2.686,-25.757
0.151,0.225,0.966,0.061,4.028,-22.400
0.132,0.188,0.987,6.836,6.042,-22.644
0.113,0.194,0.994,13.733,8.606,-24.902
0.067,0.244,1.012,18.372,10.986,-28.137
0.024,0.292,1.062,22.766,12.878,-29.480
-0.010,0.332,1.104,23.437,13.184,-26.794
-0.035,0.342,1.130,20.325,12.207,-23.193
-0.045,0.319,1.132,15.320,10.193,-17.334
-0.042,0.284,1.121,7.446,6.775,-9.277
-0.042,0.240,1.118,1.587,2.808,-2.258
-0.042,0.204,1.118,1.160,-0.610,2.869
-0.055,0.191,1.100,4.211,-3.296,7.141
-0.099,0.189,1.094,8.118,-5.127,10.132
-0.139,0.198,1.096,11.597,-5.920,13.245
-0.146,0.191,1.092,10.803,-7.141,17.944
-0.166,0.160,1.084,5.493,-8.606,24.048
-0.182,0.107,1.057,0.427,-10.315,30.029
-0.188,-0.000,1.048,0.732,-11.841,34.973
-0.188,-0.057,1.026,1.587,-13.367,37.842
-0.177,-0.086,1.004,3.723,-14.404,39.246
-0.156,-0.112,0.974,7.874,-15.076,40.161
-0.147,-0.158,0.963,10.498,-14.404,41.016
-0.150,-0.208,0.967,10.742,-13.000,41.870
-0.154,-0.253,0.983,10.376,-11.658,43.396
-0.164,-0.288,1.002,11.414,-10.681,43.823
-0.151,-0.319,1.016,13.794,-10.010,43.579
-0.129,-0.350,1.031,14.587,-10.071,42.603
-0.115,-0.376,1.044,10.742,-10.742,40.161
-0.086,-0.394,1.041,6.653,-11.475,38.391
-0.060,-0.389,1.032,3.967,-12.146,37.231
-0.045,-0.384,1.034,2.808,-12.146,35.522
-0.017,-0.382,1.035,2.441,-11.963,33.813
0.010,-0.392,1.018,-0.793,-12.024,31.799
0.034,-0.408,1.003,-6.226,-11.536,28.992
0.036,-0.406,1.000,-9.399,-10.071,24.902
0.049,-0.397,1.000,-7.019,-8.911,20.142
0.069,-0.359,0.989,-2.441,-7.812,14.343
0.084,-0.317,0.971,2.991,-6.287,8.728
0.093,-0.255,0.954,6.287,-4.700,3.357
0.098,-0.212,0.942,8.850,-2.686,-0.427
0.092,-0.185,0.946,9.399,-0.122,-2.747
0.089,-0.158,0.949,7.446,1.892,-4.639
0.090,-0.129,0.961,5.310,3.479,-5.737
0.087,-0.111,0.980,4.456,4.822,-5.981
0.091,-0.103,0.975,1.892,5.371,-5.493
0.087,-0.117,0.970,-3.479,4.578,-3.845
0.088,-0.132,0.960,-6.409,4.395,-2.869
0.095,-0.135,0.943,-7.507,4.517,-2.136
0.099,-0.129,0.934,-6.042,5.249,-2.014
0.093,-0.118,0.941,-4.395,6.042,-1.465
0.091,-0.112,0.959,-1.709,6.531,-1.038
0.093,-0.102,0.973,0.183,6.714,-0.732
0.094,-0.085,0.976,0.305,6.348,-0.305
0.091,-0.078,0.988,-0.061,5.737,0.000
0.093,-0.087,0.992,-0.671,5.066,0.305
0.093,-0.101,0.995,-1.709,4.150,0.183
-0.372,-1.208,0.986,23.010,10.376,75.500
-0.297,-1.155,1.034,37.537,16.663,62.012
-0.208,-1.063,1.095,40.955,19.470,49.255
-0.141,-0.946,1.121,37.598,20.020,37.964
0.062,-0.869,1.155,36.926,17.883,28.381
0.215,-0.745,1.170,36.682,16.052,20.752
0.353,-0.666,1.168,38.635,10.315,14.771
0.471,-0.650,1.101,28.931,3.784,8.362
0.580,-0.716,1.034,16.174,-2.258,0.488
0.656,-0.766,0.977,5.798,-6.531,-11.597
0.721,-0.764,0.960,-6.470,-8.911,-28.564
0.788,-0.691,0.929,-15.686,-11.292,-43.701
0.876,-0.570,0.852,-17.700,-14.221,-55.359
0.946,-0.417,0.741,-22.156,-15.808,-64.819
0.978,-0.273,0.649,-31.616,-14.221,-71.960
0.990,-0.163,0.621,-38.452,-10.132,-74.890
0.997,-0.068,0.613,-43.640,-6.165,-74.768
0.981,-0.014,0.608,-47.729,-3.540,-74.341
0.961,0.003,0.579,-45.166,-1.526,-72.388
0.928,0.041,0.562,-31.616,1.770,-69.641
0.891,0.101,0.620,-8.972,7.690,-66.528
0.838,0.183,0.701,8.362,12.451,-62.317
0.818,0.222,0.794,20.508,16.785,-54.077
0.762,0.189,0.863,23.010,16.663,-48.584
0.708,0.122,0.896,13.916,17.944,-47.058
0.643,0.068,0.934,1.343,20.630,-45.349
0.570,0.058,0.985,-6.104,21.851,-44.128
0.493,0.060,1.027,-7.202,22.156,-44.067
0.416,0.086,1.047,-6.897,21.851,-45.715
0.352,0.102,1.052,-5.310,19.775,-46.570
0.302,0.129,1.051,-7.385,16.602,-45.776
0.266,0.161,1.036,-10.864,13.855,-45.349
0.233,0.196,1.009,-11.536,11.108,-44.250
0.221,0.222,0.980,-9.949,7.751,-39.978
0.191,0.244,0.973,-7.629,6.226,-36.316
0.155,0.274,0.962,-4.883,5.615,-33.142
0.125,0.298,0.962,-0.366,5.981,-29.053
0.090,0.287,0.971,3.174,6.042,-24.292
0.063,0.246,0.993,3.418,6.531,-21.179
0.021,0.207,1.013,2.869,7.080,-19.226
0.016,0.184,1.034,5.127,7.568,-18.188
-0.016,0.179,1.046,4.272,7.690,-17.578
-0.027,0.139,1.046,3.662,7.568,-16.846
-0.051,0.114,1.027,1.038,7.141,-15.991
-0.072,0.107,1.012,0.000,7.202,-15.747
-0.077,0.100,1.009,-0.793,7.568,-15.808
-0.073,0.109,1.011,-2.380,7.935,-15.137
-0.105,0.137,1.036,-2.686,8.545,-14.404
-0.129,0.191,1.060,0.916,9.583,-14.648
-0.122,0.257,1.077,3.418,9.338,-13.245
-0.112,0.304,1.094,5.615,8.667,-9.644
-0.095,0.322,1.099,7.751,7.385,-4.333
-0.061,0.328,1.099,7.080,5.737,0.305
-0.028,0.318,1.082,5.249,4.272,5.188
0.004,0.283,1.058,3.906,2.258,11.230
0.032,0.220,1.036,1.831,0.427,17.456
0.060,0.146,1.014,-1.343,-0.793,22.339
0.041,0.106,0.998,-4.517,-1.770,26.245
0.018,0.046,0.998,-3.418,-1.160,28.076
-0.018,0.011,1.022,-3.174,-0.366,30.212
-0.064,-0.026,1.067,-4.211,-0.244,34.119
-0.104,-0.090,1.109,-3.967,-0.977,37.720
-0.117,-0.138,1.111,-5.798,-3.723,41.077
-0.127,-0.173,1.110,-3.357,-6.287,42.847
-0.137,-0.205,1.111,2.014,-8.179,43.152
-0.118,-0.245,1.106,5.676,-10.193,43.701
-0.105,-0.279,1.092,5.920,-12.329,43.945
-0.082,-0.309,1.078,4.517,-13.245,42.542
-0.066,-0.342,1.078,5.310,-13.123,40.161
-0.057,-0.362,1.089,5.798,-12.939,37.354
-0.059,-0.364,1.098,5.371,-13.428,34.241
-0.058,-0.341,1.104,3.967,-14.587,30.518
-0.049,-0.323,1.093,1.038,-16.296,27.588
-0.039,-0.316,1.064,-1.221,-18.005,25.940
-0.024,-0.300,1.024,-3.357,-19.226,24.658
-0.003,-0.275,0.995,-5.005,-19.226,23.193
0.014,-0.242,0.972,-6.592,-17.944,21.851
0.033,-0.212,0.950,-9.155,-16.174,20.447
0.042,-0.195,0.939,-12.268,-14.099,19.531
0.048,-0.185,0.936,-15.503,-11.719,19.226
0.061,-0.184,0.942,-17.395,-9.705,19.104
0.075,-0.205,0.952,-18.005,-8.545,18.616
0.095,-0.216,0.954,-18.066,-6.714,16.357
0.084,-0.216,0.959,-17.700,-4.639,13.367
0.093,-0.208,0.962,-13.672,-2.075,10.010
0.094,-0.187,0.980,-7.385,0.183,6.592
0.095,-0.170,0.996,-0.427,2.380,3.784
0.104,-0.153,0.991,3.723,3.601,1.099
0.114,-0.132,0.976,6.287,3.845,-0.732
0.117,-0.117,0.972,6.714,3.967,-1.892
0.112,-0.098,0.967,5.493,3.906,-3.174
0.110,-0.064,0.954,4.150,3.601,-3.906
0.102,-0.034,0.950,2.625,3.357,-3.784
0.095,-0.018,0.954,-0.427,3.540,-2.441
0.089,-0.031,0.958,-2.686,3.052,-0.183
0.078,-0.048,0.957,-5.310,2.441,2.319
0.070,-0.062,0.959,-6.836,2.319,4.089
0.068,-0.083,0.967,-5.310,2.441,5.493
0.066,-0.113,0.983,-3.052,2.197,6.531
0.070,-0.136,0.993,-1.343,1.465,6.409
0.077,-0.140,0.994,1.587,0.549,5.188
0.094,-0.125,0.991,4.456,-0.305,3.479
0.095,-0.104,0.998,6.165,-0.854,2.258
0.099,-0.101,1.001,6.104,-1.709,1.587
0.103,-0.107,0.993,4.333,-2.625,1.770
0.102,-0.123,0.984,1.465,-3.540,1.770
0.088,-0.142,0.987,0.488,-3.296,1.404
0.075,-0.157,0.996,1.343,-2.625,0.854
0.062,-0.156,0.999,1.648,-2.014,0.305
0.050,-0.146,0.997,2.747,-1.099,0.122
0.031,-0.137,1.000,3.296,0.061,0.488
0.015,-0.137,1.004,1.709,0.977,0.610
0.002,-0.145,1.005,0.488,1.404,1.221
-0.001,-0.145,0.998,0.549,1.526,2.075
-0.005,-0.145,0.985,-0.183,1.953,2.441
-0.000,-0.137,0.974,-1.282,2.502,3.113
0.003,-0.151,0.974,-1.953,2.747,4.028
0.003,-0.172,0.987,-3.235,2.869,4.944
0.011,-0.182,0.993,-4.517,2.686,4.944
-0.396,3.689,1.007,208.557,70.679,-136.597
-0.556,4.000,1.630,127.686,73.975,-76.294
-0.593,3.734,2.027,-16.785,43.518,30.884
-0.509,2.354,2.012,-152.161,-0.549,159.790
-0.488,0.666,1.796,-212.463,-34.790,246.155
-0.542,-1.000,1.449,-199.890,-48.828,272.095
-0.614,-2.439,1.156,-172.363,-40.894,259.644
-0.728,-3.202,0.981,-132.568,-21.545,218.384
-0.660,-3.419,0.948,-61.951,0.488,166.138
-0.427,-3.185,1.115,19.531,19.409,121.643
-0.277,-2.592,1.314,76.416,34.241,79.651
-0.248,-1.882,1.537,133.484,45.654,40.833
-0.081,-1.150,1.624,172.791,51.697,17.090
0.086,-0.505,1.504,171.021,48.706,-0.061
0.282,0.019,1.332,124.634,37.170,-12.939
0.408,0.354,1.241,65.613,29.175,-18.005
0.604,0.397,1.191,18.127,25.940,-11.658
0.667,0.410,1.137,-32.227,22.095,4.700
0.719,0.243,1.126,-84.351,17.212,21.790
0.730,0.098,1.151,-113.464,12.024,30.762
0.692,0.035,1.146,-99.670,8.972,32.532
0.714,-0.171,1.080,-53.162,5.920,38.086
0.739,-0.347,0.969,-9.338,-1.892,44.189
0.683,-0.391,0.877,17.761,-4.578,32.654
0.617,-0.372,0.807,25.146,-3.662,8.911
0.558,-0.388,0.777,24.780,-3.174,-6.348
0.538,-0.482,0.740,22.949,-5.310,-9.766
0.540,-0.571,0.694,16.541,-9.033,-10.254
0.543,-0.600,0.651,8.179,-10.559,-14.465
0.555,-0.580,0.641,2.197,-8.362,-21.545
0.533,-0.476,0.703,1.343,-4.395,-29.663
0.514,-0.335,0.785,7.812,0.305,-38.086
0.474,-0.227,0.862,19.836,4.639,-45.715
0.497,-0.128,0.877,27.527,7.080,-50.964
0.476,-0.058,0.869,30.457,5.310,-51.819
0.458,-0.060,0.898,29.846,1.953,-48.462
0.440,-0.060,0.920,16.235,-0.427,-41.931
0.411,-0.064,0.948,4.761,-1.831,-41.382
0.386,-0.019,0.949,-0.610,-3.601,-45.044
0.359,0.023,0.953,-7.629,-3.662,-44.556
0.345,0.062,0.962,-15.625,-2.380,-40.039
0.330,0.101,0.987,-21.362,-0.305,-34.790
0.326,0.082,1.006,-20.020,2.991,-31.738
0.303,0.099,1.001,-13.489,7.019,-33.875
0.263,0.167,0.983,-4.761,10.742,-40.405
0.231,0.218,0.970,4.395,14.404,-45.654
0.190,0.241,0.962,8.484,15.503,-44.800
0.154,0.232,0.961,6.409,14.160,-41.565
0.143,0.198,0.943,0.000,10.864,-37.720
0.131,0.141,0.912,-9.521,7.080,-33.997
0.101,0.035,0.897,-16.846,4.517,-28.320
0.081,-0.061,0.896,-18.677,4.333,-23.987
0.079,-0.112,0.899,-18.860,4.700,-21.301
0.082,-0.134,0.899,-17.151,5.188,-20.996
0.084,-0.125,0.904,-13.245,5.615,-20.508
0.088,-0.083,0.924,-10.986,6.287,-20.813
0.110,-0.056,0.945,-11.475,5.615,-22.400
0.104,-0.027,0.932,-13.916,3.540,-23.743
0.113,-0.004,0.915,-15.991,2.014,-25.574
0.117,0.041,0.911,-16.846,1.709,-27.832
0.098,0.087,0.913,-16.113,2.136,-28.259
0.087,0.121,0.925,-11.719,2.625,-27.161
0.091,0.162,0.929,-10.010,2.319,-24.536
0.092,0.185,0.922,-10.986,2.686,-22.217
0.101,0.208,0.913,-11.292,3.113,-20.569
0.101,0.224,0.911,-8.057,4.333,-19.043
0.119,0.215,0.909,-2.502,4.944,-16.174
0.130,0.208,0.920,-2.014,4.456,-14.709
0.098,0.221,0.963,-3.235,3.967,-13.367
0.078,0.198,1.000,-3.784,3.723,-11.658
0.045,0.156,1.036,-7.202,2.197,-9.033
0.023,0.098,1.051,-12.146,-0.122,-5.127
-0.006,0.043,1.049,-16.113,-2.869,-3.113
-0.029,-0.004,1.028,-17.029,-4.517,-3.540
-0.047,-0.018,1.008,-15.381,-4.456,-3.662
-0.077,-0.037,1.001,-10.315,-3.174,-4.150
-0.100,-0.039,0.992,-5.127,-2.991,-5.005
-0.119,-0.011,0.997,-1.221,-3.296,-4.700
-0.168,-0.014,1.023,2.197,-2.441,-3.418
-0.167,-0.046,1.043,2.136,-2.625,-0.549
-0.137,-0.052,1.049,-1.221,-3.479,4.944
-0.113,-0.077,1.064,-2.502,-3.967,9.399
-0.089,-0.095,1.052,-6.042,-4.700,11.169
-0.068,-0.093,1.037,-6.348,-5.310,12.573
-0.042,-0.074,1.012,-2.197,-5.493,13.245
-0.037,-0.033,0.997,1.526,-5.249,13.245
-0.038,-0.001,0.981,1.465,-4.883,13.123
-0.041,0.020,0.960,-1.526,-4.517,14.282
-0.050,0.023,0.957,-4.517,-3.601,16.235
-0.057,-0.001,0.979,-6.653,-2.319,19.104
-0.060,-0.028,0.999,-7.629,-1.343,21.667
-0.059,-0.038,1.009,-7.751,-0.305,22.522
-0.058,-0.018,1.029,-6.287,0.977,22.461
-0.068,0.003,1.064,-3.540,2.075,22.278
-0.071,0.000,1.086,-2.563,1.831,22.339
-0.052,-0.017,1.082,-3.845,0.793,23.254
-0.028,-0.058,1.075,-3.723,-0.488,24.414
-0.026,-0.097,1.085,-3.723,-0.977,24.536
-0.013,-0.104,1.088,-6.470,-1.648,24.353
-0.012,-0.100,1.123,-5.798,-1.709,23.865
-0.005,-0.096,1.151,-4.333,-2.014,22.705
-0.007,-0.092,1.162,-5.920,-4.272,21.729
-0.003,-0.098,1.155,-7.263,-6.836,20.874
0.003,-0.103,1.132,-7.507,-9.521,20.386
0.002,-0.109,1.103,-7.568,-11.963,19.958
0.000,-0.120,1.077,-7.690,-12.329,18.860
-0.004,-0.133,1.055,-6.409,-12.207,17.517
-0.004,-0.125,1.039,-3.906,-11.536,16.357
-0.004,-0.116,1.021,-0.061,-10.925,15.320
0.001,-0.104,1.001,1.831,-10.071,14.526
0.003,-0.092,0.987,1.038,-9.155,14.343
0.000,-0.090,0.968,0.061,-7.996,14.221
0.004,-0.095,0.963,-1.160,-6.470,14.160
-0.006,-0.106,0.975,-3.784,-5.005,14.221
-0.018,-0.130,0.995,-5.493,-3.845,14.221
-0.019,-0.150,1.004,-5.981,-2.625,14.771
-0.019,-0.163,1.016,-4.517,-1.770,15.198
-0.015,-0.172,1.026,-2.136,-1.465,14.771
-0.004,-0.180,1.023,-1.282,-1.343,13.428
-0.176,2.684,0.865,113.708,67.627,-91.370
-0.287,3.169,1.315,66.040,81.482,-54.138
-0.367,3.114,1.724,-12.329,74.890,3.723
-0.326,2.522,1.923,-70.557,52.185,80.017
-0.243,1.738,1.898,-96.802,23.987,160.950
-0.234,0.909,1.760,-97.473,1.770,215.637
-0.281,0.068,1.604,-77.209,-10.559,238.770
-0.303,-0.794,1.437,-64.575,-16.541,244.751
-0.388,-1.577,1.254,-60.364,-18.616,235.474
-0.466,-2.138,1.091,-42.419,-17.090,214.478
-0.491,-2.450,0.953,-12.146,-11.230,186.707
-0.390,-2.578,0.868,17.029,-5.127,159.851
-0.205,-2.509,0.887,40.710,1.526,136.292
-0.141,-2.255,0.998,67.566,12.756,108.093
-0.086,-1.983,1.116,101.563,26.733,73.730
0.035,-1.615,1.217,131.958,35.034,51.147
0.190,-1.194,1.238,152.893,39.795,36.255
0.344,-0.799,1.237,157.715,42.847,20.447
0.459,-0.473,1.206,139.587,41.565,1.587
0.540,-0.304,1.148,105.103,35.706,-14.771
0.631,-0.304,1.079,65.125,26.245,-23.926
0.730,-0.368,1.029,22.888,13.489,-25.269
0.783,-0.407,0.974,-8.911,0.793,-25.146
0.789,-0.401,0.923,-17.029,-5.737,-29.785
0.812,-0.339,0.897,-2.502,-5.798,-37.231
0.813,-0.201,0.901,17.334,-4.089,-43.457
0.815,-0.048,0.889,23.499,-2.991,-49.683
0.784,0.068,0.897,13.245,-3.052,-54.138
0.740,0.132,0.887,-6.592,-4.944,-56.152
0.700,0.101,0.848,-27.527,-7.935,-55.237
0.706,-0.003,0.789,-40.100,-10.437,-50.415
0.687,-0.102,0.767,-40.710,-10.132,-43.579
0.658,-0.188,0.796,-30.884,-6.470,-37.842
0.632,-0.227,0.846,-16.296,-1.526,-35.461
0.584,-0.278,0.899,-3.357,2.808,-35.217
0.554,-0.299,0.930,1.160,3.906,-35.156
0.528,-0.301,0.954,2.747,6.104,-35.217
0.517,-0.309,0.958,4.639,4.578,-37.659
0.512,-0.270,0.932,0.488,6.958,-43.823
0.492,-0.221,0.917,-6.592,11.597,-47.791
0.454,-0.175,0.915,-15.442,14.038,-49.988
0.421,-0.153,0.901,-22.278,14.893,-50.842
0.386,-0.133,0.885,-25.452,15.808,-52.856
0.351,-0.101,0.869,-26.611,16.418,-55.237
0.329,-0.041,0.854,-26.367,16.541,-56.580
0.316,0.017,0.863,-23.682,17.090,-56.396
0.288,0.086,0.869,-23.865,17.273,-54.382
0.286,0.120,0.909,-22.400,18.127,-50.903
0.277,0.155,0.938,-22.217,18.494,-46.753
0.263,0.182,0.957,-27.161,18.311,-43.457
0.257,0.183,0.962,-27.405,17.395,-40.649
0.255,0.169,0.953,-25.696,15.320,-35.645
0.251,0.130,0.937,-23.132,13.550,-32.288
0.233,0.102,0.927,-20.203,11.536,-31.799
0.224,0.130,0.931,-16.296,11.292,-34.119
0.185,0.195,0.951,-14.221,11.719,-37.292
0.158,0.235,0.972,-15.076,12.939,-40.344
0.133,0.267,0.974,-20.386,12.451,-40.955
0.136,0.296,0.954,-23.010,11.902,-39.917
0.112,0.301,0.929,-24.719,12.207,-38.513
0.075,0.270,0.922,-26.978,12.512,-35.400
0.038,0.215,0.939,-27.527,12.756,-30.457
0.011,0.173,0.963,-21.057,13.062,-25.024
-0.009,0.158,0.979,-14.038,11.902,-21.912
-0.033,0.169,0.982,-10.193,10.803,-20.569
-0.039,0.172,0.973,-5.798,10.071,-17.334
-0.043,0.149,0.985,-0.793,10.376,-11.414
-0.034,0.118,1.000,0.000,11.230,-4.578
-0.023,0.107,1.006,-3.784,11.597,0.000
-0.021,0.123,1.019,-7.019,11.108,2.563
-0.028,0.153,1.036,-6.409,10.254,4.028
-0.038,0.165,1.043,-4.395,9.460,5.798
-0.057,0.156,1.055,-3.418,7.751,9.216
-0.092,0.118,1.076,-2.014,6.226,12.939
-0.094,0.063,1.084,-0.793,4.028,16.479
-0.078,0.017,1.079,-0.854,1.648,20.203
-0.089,-0.034,1.098,2.441,0.732,22.400
-0.063,-0.077,1.090,1.831,-0.977,22.827
-0.048,-0.095,1.071,-1.587,-2.808,22.705
-0.016,-0.082,1.034,-4.150,-4.395,21.851
0.016,-0.068,1.008,-2.808,-4.822,21.423
0.034,-0.086,0.988,-3.113,-5.127,21.729
0.028,-0.111,0.971,-6.836,-5.310,20.996
0.028,-0.126,0.962,-9.583,-5.005,19.409
0.010,-0.149,0.994,-9.705,-3.479,18.372
-0.016,-0.160,1.033,-9.216,-1.221,17.456
-0.022,-0.164,1.052,-8.850,-0.610,16.296
-0.018,-0.144,1.062,-6.165,-0.671,15.259
-0.025,-0.110,1.081,-2.197,-0.977,14.709
-0.019,-0.078,1.087,1.404,-1.648,14.954
-0.023,-0.058,1.096,2.930,-3.235,15.686
-0.014,-0.042,1.088,0.244,-6.531,16.541
-0.009,-0.026,1.075,-1.770,-9.888,17.578
-0.007,-0.028,1.068,-0.977,-12.024,19.104
-0.003,-0.047,1.056,1.343,-14.954,21.667
-0.001,-0.052,1.045,2.686,-16.724,24.780
0.014,-0.081,1.043,3.662,-16.602,27.344
0.009,-0.103,1.032,2.808,-16.052,28.748
-0.002,-0.108,1.027,0.305,-15.259,28.442
0.003,-0.106,1.021,1.526,-13.306,26.062
0.003,-0.108,1.012,4.700,-10.742,24.048
0.012,-0.113,0.998,5.737,-8.484,22.278
0.023,-0.127,0.978,3.296,-6.348,20.081
0.021,-0.162,0.980,2.014,-3.906,18.066
0.017,-0.196,0.994,1.038,-1.587,16.663
0.007,-0.208,1.006,-1.343,0.366,14.648
0.006,-0.211,1.016,-2.747,1.282,12.695
-0.000,-0.201,1.018,-4.639,1.404,11.108
0.016,-0.211,1.022,-7.080,1.343,9.277
0.016,-0.239,1.015,-11.353,0.122,7.996
0.023,-0.238,0.987,-13.184,-0.916,8.240
0.040,-0.244,0.954,-10.742,-1.465,8.850
0.044,-0.221,0.932,-7.690,-0.427,7.935
0.057,-0.192,0.923,-5.371,1.404,6.836
0.059,-0.162,0.925,-4.822,2.991,5.127
0.063,-0.141,0.933,-4.517,4.150,3.296
0.072,-0.116,0.938,-5.737,4.883,2.380
0.076,-0.093,0.945,-8.789,5.554,0.610
0.070,-0.104,0.964,-11.414,5.249,-0.793
-0.609,-1.520,1.150,-69.031,4.700,162.720
-0.621,-2.072,1.153,-37.903,1.343,157.532
-0.614,-2.376,1.173,4.944,2.380,136.780
-0.528,-2.418,1.200,59.204,1.343,112.000
-0.286,-2.305,1.239,110.168,-1.221,84.351
0.044,-1.960,1.229,136.902,-4.211,56.763
0.336,-1.436,1.209,137.390,-4.700,32.227
0.604,-0.752,1.188,143.372,0.610,7.568
0.853,-0.079,1.205,129.822,5.981,-9.277
0.954,0.485,1.272,74.646,4.578,-24.597
0.982,0.826,1.301,12.329,-1.587,-36.621
1.006,0.959,1.260,-37.598,-11.353,-36.499
1.037,0.960,1.144,-66.467,-20.874,-28.381
1.042,0.828,1.037,-69.153,-23.560,-18.677
1.006,0.741,0.957,-53.711,-20.935,-9.521
1.022,0.601,0.938,-25.635,-14.282,1.892
0.991,0.432,0.998,1.770,-7.141,13.977
0.931,0.329,1.050,8.301,-5.310,16.357
0.858,0.325,1.046,1.953,-6.531,5.188
0.745,0.312,1.041,3.662,-7.996,-4.639
0.649,0.221,1.021,11.536,-10.498,-4.211
0.595,0.088,0.967,10.864,-14.526,-0.244
0.540,-0.082,0.898,7.019,-17.639,2.197
0.492,-0.235,0.852,8.606,-19.287,1.587
0.451,-0.300,0.807,13.306,-20.386,-1.099
0.399,-0.338,0.769,17.334,-18.555,-3.723
0.336,-0.354,0.730,20.996,-18.738,-13.428
0.290,-0.321,0.688,19.104,-17.029,-22.095
0.243,-0.319,0.667,15.015,-12.634,-26.062
0.219,-0.300,0.674,9.949,-8.850,-26.794
0.202,-0.245,0.677,2.258,-5.737,-27.100
0.190,-0.209,0.697,1.343,0.732,-30.396
0.170,-0.189,0.725,4.822,7.690,-35.217
0.153,-0.139,0.768,8.911,13.489,-38.391
0.133,-0.110,0.839,12.695,18.677,-39.978
0.131,-0.081,0.912,12.207,21.423,-39.185
0.132,-0.073,0.969,9.644,22.156,-37.781
0.156,-0.105,1.014,6.042,20.081,-35.828
0.146,-0.126,1.042,-1.343,16.418,-35.828
0.150,-0.124,1.045,-6.897,13.000,-39.246
0.151,-0.092,1.015,-6.104,10.193,-43.396
0.139,-0.036,0.976,-3.723,8.423,-46.021
0.104,0.003,0.960,2.563,8.362,-49.377
0.097,0.040,0.947,4.517,8.057,-49.927
0.065,0.086,0.937,2.502,7.935,-49.072
0.054,0.101,0.941,-0.793,7.141,-45.837
0.073,0.109,0.934,-4.944,6.958,-40.222
0.098,0.155,0.928,-6.531,7.263,-33.936
0.138,0.151,0.952,-6.653,8.667,-30.579
0.134,0.164,0.974,-9.949,10.010,-29.053
0.115,0.140,0.992,-14.221,10.986,-27.649
0.102,0.119,1.002,-17.151,10.376,-26.917
0.096,0.148,1.013,-19.165,9.033,-26.123
0.067,0.200,1.013,-16.296,8.118,-27.832
0.052,0.248,1.016,-7.507,7.568,-28.320
0.058,0.276,1.003,-0.916,7.629,-25.940
0.035,0.268,1.008,0.183,7.080,-21.912
0.033,0.252,1.006,-2.441,6.714,-17.578
0.028,0.217,1.025,-7.263,5.127,-12.634
0.063,0.156,1.025,-7.690,4.639,-7.019
0.069,0.135,1.026,-6.165,4.395,-2.808
0.070,0.106,1.027,-3.235,4.944,-1.831
0.032,0.076,1.035,-2.808,5.188,-2.930
0.002,0.049,1.043,-1.282,5.249,-3.174
-0.027,0.027,1.047,0.427,6.104,-1.709
-0.047,-0.018,1.061,-0.244,6.653,-1.831
-0.081,-0.041,1.060,-3.113,6.653,-1.953
-0.078,-0.048,1.086,-1.404,6.165,-0.854
-0.107,-0.024,1.098,2.197,6.165,1.282
-0.081,-0.008,1.106,5.493,5.127,3.113
-0.046,0.028,1.088,2.441,2.502,5.981
-0.010,0.043,1.067,0.610,0.671,8.972
0.000,0.035,1.057,-1.831,-0.061,11.780
0.003,0.032,1.047,-5.676,-1.221,14.038
0.003,0.032,1.034,-6.836,-2.075,16.052
-0.016,0.038,1.032,-5.188,-2.380,17.395
-0.047,0.027,1.041,-2.380,-2.991,19.714
-0.068,0.015,1.048,-0.366,-3.784,22.461
-0.078,0.009,1.054,2.930,-4.822,25.452
-0.086,-0.001,1.066,6.348,-5.859,28.381
-0.071,-0.014,1.053,6.653,-7.507,30.762
-0.055,-0.041,1.038,6.775,-8.728,33.020
-0.031,-0.077,1.036,6.714,-9.094,35.095
-0.019,-0.110,1.045,6.958,-8.789,35.889
-0.001,-0.140,1.044,4.761,-8.606,35.767
0.010,-0.167,1.048,1.465,-8.728,35.034
0.010,-0.180,1.052,0.305,-8.545,33.081
0.009,-0.192,1.049,0.305,-8.301,30.701
0.014,-0.194,1.037,-0.366,-8.667,28.625
0.012,-0.183,1.030,-1.587,-8.850,26.550
0.009,-0.187,1.028,-2.136,-8.545,24.841
0.016,-0.201,1.015,-3.784,-8.667,23.437
0.031,-0.217,0.996,-5.005,-8.728,22.278
0.038,-0.214,0.976,-5.676,-8.362,19.958
0.039,-0.210,0.971,-6.042,-7.202,16.663
0.039,-0.206,0.964,-5.798,-6.714,14.160
0.052,-0.209,0.952,-4.761,-6.104,12.939
0.070,-0.238,0.945,-3.906,-5.249,11.536
0.081,-0.249,0.934,-4.150,-4.333,9.338
0.083,-0.252,0.933,-2.136,-1.953,7.202
0.085,-0.246,0.947,3.235,0.977,4.761
0.085,-0.214,0.963,7.263,3.113,2.686
0.086,-0.175,0.977,9.033,4.395,0.977
0.088,-0.145,0.985,8.240,4.761,-0.549
0.089,-0.125,0.981,4.639,4.272,-1.221
0.084,-0.108,0.977,0.244,3.479,-1.465
0.085,-0.104,0.969,-3.967,2.563,-1.465
0.085,-0.105,0.965,-6.592,2.258,-1.221
0.086,-0.118,0.972,-6.714,2.380,-0.854
0.082,-0.121,0.980,-5.005,2.991,-0.244
0.079,-0.104,0.993,-2.258,3.479,-0.122
0.087,-0.087,1.007,0.977,3.906,-0.183
0.081,-0.083,1.014,3.418,3.845,-0.305
0.092,-0.072,1.015,2.625,2.502,0.366
0.104,-0.067,1.001,-0.366,1.282,0.854
0.110,-0.068,0.999,-0.610,1.038,0.244
0.101,-0.064,0.986,0.244,0.366,-1.282
0.090,-0.062,0.983,0.427,0.244,-2.136
0.078,-0.061,0.986,2.258,1.831,-2.319
-0.401,1.336,1.300,-7.263,22.705,1.404
-0.496,1.168,1.342,-33.691,16.174,25.757
-0.543,0.959,1.321,-47.668,10.742,43.579
-0.574,0.754,1.293,-42.053,6.470,55.786
-0.581,0.568,1.241,-25.635,2.075,65.125
-0.563,0.420,1.211,-10.437,-2.869,72.693
-0.536,0.253,1.147,1.343,-8.240,81.726
-0.502,0.050,1.068,6.531,-12.878,90.576
-0.519,-0.158,0.976,3.296,-14.893,98.511
-0.541,-0.400,0.927,6.531,-12.451,105.713
-0.561,-0.687,0.917,10.925,-7.935,113.708
-0.630,-0.998,0.922,12.329,-3.479,117.371
-0.649,-1.318,0.881,11.353,2.258,114.502
-0.586,-1.592,0.839,14.771,7.874,107.422
-0.514,-1.704,0.839,26.855,14.648,94.116
-0.437,-1.760,0.872,44.617,23.315,76.050
-0.330,-1.813,0.935,60.669,29.846,58.350
-0.158,-1.749,0.970,64.514,32.410,40.039
0.039,-1.596,0.969,69.885,33.142,16.907
0.284,-1.386,0.958,77.332,33.020,-5.920
0.468,-1.108,0.909,74.951,33.936,-29.846
0.642,-0.862,0.868,65.186,36.560,-53.589
0.777,-0.641,0.858,43.640,37.598,-67.810
0.915,-0.575,0.884,15.259,35.095,-73.059
1.009,-0.549,0.883,-16.113,29.846,-75.134
1.104,-0.462,0.866,-37.048,25.085,-77.454
1.144,-0.275,0.844,-42.419,22.095,-81.299
1.219,-0.060,0.840,-38.330,20.203,-82.092
1.233,0.125,0.835,-35.461,17.883,-76.172
1.243,0.211,0.822,-37.537,15.259,-66.101
1.245,0.229,0.765,-45.105,10.620,-56.580
1.295,0.206,0.757,-44.128,7.446,-49.561
1.237,0.232,0.802,-34.363,7.202,-44.800
1.131,0.263,0.865,-19.897,8.911,-45.166
1.024,0.288,0.906,-10.925,8.057,-41.992
0.945,0.256,0.961,-3.723,5.737,-34.668
0.849,0.175,0.989,0.305,3.296,-24.292
0.758,0.072,1.017,-1.160,3.052,-18.066
0.659,0.007,1.033,-2.502,1.526,-22.278
0.569,-0.018,1.023,-5.615,4.456,-26.489
0.488,-0.050,1.013,-8.667,8.057,-26.245
0.420,-0.114,1.013,-11.047,8.484,-26.001
0.373,-0.133,0.994,-13.245,7.141,-29.541
0.338,-0.075,0.963,-9.338,6.531,-36.621
0.320,0.044,0.945,-0.610,6.104,-42.175
0.308,0.185,0.934,6.897,5.188,-42.175
0.276,0.293,0.936,8.728,4.517,-40.039
0.255,0.394,0.931,5.615,4.150,-36.255
0.233,0.443,0.934,4.700,3.723,-29.419
0.212,0.438,0.959,6.714,3.723,-20.752
0.199,0.389,0.979,6.226,4.211,-13.062
0.151,0.360,0.977,0.488,3.845,-8.179
0.141,0.321,0.957,-2.869,4.578,-6.165
0.122,0.260,0.937,-5.371,4.639,-4.333
0.095,0.182,0.904,-5.615,4.944,-4.089
0.034,0.119,0.867,-9.155,5.859,-7.629
-0.045,0.074,0.860,-10.376,8.301,-12.878
-0.095,0.057,0.873,-8.667,11.475,-16.479
-0.148,0.093,0.915,-7.812,14.343,-19.836
-0.180,0.148,0.969,-1.099,16.785,-21.240
-0.195,0.218,1.017,3.540,17.090,-20.447
-0.196,0.285,1.062,4.272,15.320,-19.226
-0.182,0.329,1.089,3.418,11.902,-15.747
-0.156,0.344,1.094,2.075,7.385,-10.071
-0.116,0.348,1.082,0.305,3.540,-3.357
-0.089,0.333,1.073,-0.671,0.977,2.014
-0.069,0.315,1.061,-1.099,-0.549,8.484
-0.058,0.274,1.068,0.183,-1.770,16.602
-0.056,0.233,1.097,2.869,-2.441,25.146
-0.061,0.172,1.135,1.099,-2.930,32.288
-0.056,0.106,1.147,-4.944,-3.906,39.124
-0.052,0.029,1.168,-8.301,-5.066,44.861
-0.046,-0.047,1.193,-9.644,-5.615,48.279
-0.043,-0.117,1.212,-10.254,-6.714,49.072
-0.046,-0.156,1.211,-9.644,-8.850,47.119
-0.040,-0.190,1.191,-6.775,-11.536,44.495
-0.032,-0.201,1.162,-2.747,-14.404,41.443
-0.026,-0.202,1.136,0.122,-16.296,37.842
-0.022,-0.203,1.110,0.183,-17.700,34.668
-0.021,-0.227,1.089,-0.488,-18.616,32.227
-0.026,-0.262,1.064,-1.038,-18.982,30.151
-0.022,-0.251,1.027,0.366,-19.348,28.320
-0.015,-0.237,1.006,5.127,-18.982,27.222
-0.012,-0.224,0.994,6.592,-18.250,26.428
-0.002,-0.226,0.968,5.798,-17.334,25.757
0.021,-0.253,0.941,2.075,-17.334,25.574
0.045,-0.256,0.910,-4.700,-17.212,25.024
0.036,-0.271,0.908,-8.789,-15.808,23.682
0.027,-0.278,0.898,-8.545,-14.038,21.667
0.054,-0.269,0.894,-7.874,-12.878,19.226
0.047,-0.254,0.906,-6.104,-11.536,17.456
0.056,-0.234,0.921,-3.723,-9.521,15.747
0.074,-0.195,0.934,-2.197,-8.179,14.160
0.079,-0.157,0.942,-0.549,-6.592,12.024
0.102,-0.138,0.949,-1.099,-4.639,9.705
0.113,-0.122,0.948,-5.188,-2.686,8.118
0.122,-0.117,0.957,-6.775,-0.488,6.531
0.121,-0.113,0.962,-4.883,1.709,4.700
0.119,-0.095,0.960,-2.258,3.601,2.441
0.121,-0.070,0.957,0.000,5.005,0.488
0.115,-0.037,0.961,2.441,6.226,-0.488
0.113,-0.022,0.962,3.113,6.897,-0.366
0.111,-0.025,0.964,1.953,6.775,1.038
0.111,-0.033,0.962,-0.183,6.348,2.502
0.113,-0.044,0.953,-2.014,5.798,3.479
0.111,-0.055,0.949,-3.479,5.432,4.395
0.109,-0.066,0.946,-3.357,5.188,5.615
0.105,-0.075,0.950,-2.869,5.188,6.409
0.101,-0.073,0.956,-3.601,5.432,6.165
0.098,-0.082,0.963,-3.662,5.554,5.310
0.096,-0.081,0.972,-3.540,5.676,4.211
0.096,-0.073,0.979,-2.991,5.371,2.930
0.097,-0.072,0.986,-1.953,4.944,2.197
0.100,-0.071,0.987,-1.282,4.456,1.953
0.101,-0.079,0.990,-1.343,3.967,1.465
0.099,-0.092,0.992,-1.709,3.723,0.793
0.102,-0.097,0.989,-1.587,3.296,0.427
0.101,-0.091,0.985,0.305,3.235,0.000
0.096,-0.084,0.988,1.587,3.418,-0.610
-0.624,0.798,1.308,-25.818,20.020,56.152
-0.684,0.807,1.383,-16.663,18.433,64.758
-0.677,0.806,1.411,-10.193,14.893,74.646
-0.644,0.716,1.406,-4.517,9.949,86.609
-0.584,0.548,1.362,-1.892,4.761,98.816
-0.549,0.321,1.297,-1.587,0.549,109.253
-0.525,0.045,1.223,0.305,-1.526,116.638
-0.502,-0.225,1.132,2.319,-1.953,121.521
-0.453,-0.496,1.051,5.371,-0.549,123.840
-0.373,-0.764,1.007,9.583,3.052,124.329
-0.297,-1.018,1.043,17.029,7.812,124.695
-0.288,-1.277,1.097,26.489,11.841,119.934
-0.265,-1.492,1.125,34.302,13.733,106.445
-0.223,-1.614,1.089,50.659,12.695,92.590
-0.046,-1.589,1.024,66.650,10.559,76.050
0.088,-1.504,0.964,75.684,10.559,55.847
0.241,-1.399,0.918,79.285,13.123,32.349
0.384,-1.239,0.895,70.984,15.564,11.963
0.526,-1.062,0.879,60.547,17.944,-5.554
0.698,-0.875,0.875,44.373,20.508,-24.170
0.808,-0.699,0.881,23.926,21.118,-43.823
0.901,-0.590,0.910,8.118,20.508,-58.228
0.972,-0.495,0.931,-1.343,17.639,-67.261
1.025,-0.405,0.928,-5.859,12.390,-71.960
1.067,-0.317,0.919,-10.803,6.104,-75.073
1.100,-0.218,0.904,-16.724,-0.183,-75.256
1.144,-0.133,0.865,-18.860,-5.676,-72.998
1.189,-0.070,0.805,-19.226,-8.850,-71.777
1.203,0.028,0.750,-23.193,-10.010,-73.242
1.199,0.109,0.723,-24.231,-8.850,-73.486
1.163,0.152,0.734,-17.883,-6.165,-69.702
1.132,0.203,0.756,-16.235,-4.089,-65.796
1.040,0.211,0.805,-14.771,-2.502,-62.012
0.959,0.197,0.827,-11.292,-1.404,-55.237
0.882,0.141,0.854,-5.920,0.916,-50.110
0.806,0.081,0.866,-1.343,2.136,-50.232
0.736,0.043,0.869,-0.122,6.958,-49.805
0.651,0.036,0.881,1.953,12.146,-47.729
0.568,0.047,0.899,1.953,14.221,-48.096
0.504,0.064,0.886,-1.526,13.916,-50.293
0.458,0.082,0.851,-3.357,13.184,-52.612
0.422,0.132,0.828,-2.747,13.367,-53.833
0.388,0.208,0.824,-2.136,15.564,-54.382
0.348,0.274,0.841,-2.686,17.517,-53.650
0.300,0.354,0.868,-5.127,18.616,-50.781
0.264,0.408,0.897,-5.981,19.775,-48.157
0.234,0.447,0.924,-4.150,20.691,-42.908
0.208,0.460,0.951,0.610,20.447,-33.325
0.176,0.455,0.979,5.249,20.569,-25.940
0.141,0.437,0.984,5.981,19.348,-22.095
0.126,0.422,0.972,4.456,17.395,-17.822
0.117,0.375,0.969,3.906,15.747,-13.428
0.079,0.324,0.976,1.160,14.282,-11.658
0.022,0.276,0.980,-0.854,14.526,-15.747
-0.061,0.249,1.001,-2.991,15.686,-21.362
-0.110,0.258,1.011,-6.042,16.235,-24.597
-0.143,0.283,1.048,-7.446,16.052,-24.231
-0.181,0.288,1.102,-6.348,15.869,-20.569
-0.213,0.282,1.160,-3.113,14.771,-15.991
-0.198,0.292,1.180,-3.662,11.292,-12.268
-0.163,0.296,1.187,-3.723,7.019,-8.667
-0.144,0.263,1.187,-1.892,3.479,-5.188
-0.130,0.233,1.164,-0.366,0.427,-2.747
-0.109,0.211,1.134,-0.061,-2.441,0.244
-0.099,0.218,1.113,-0.122,-4.150,5.554
-0.088,0.190,1.099,-1.831,-4.150,13.000
-0.081,0.152,1.123,-6.226,-3.601,23.132
-0.063,0.093,1.147,-12.146,-4.028,33.508
-0.055,0.024,1.173,-15.442,-5.371,40.771
-0.052,-0.047,1.181,-15.442,-7.568,45.593
-0.046,-0.112,1.171,-14.404,-10.620,47.485
-0.034,-0.150,1.134,-11.353,-13.916,47.424
-0.025,-0.169,1.098,-7.324,-16.357,45.715
-0.024,-0.184,1.073,-6.287,-17.456,42.969
-0.035,-0.203,1.058,-7.080,-17.395,40.894
-0.039,-0.223,1.051,-7.874,-16.663,39.612
-0.037,-0.259,1.052,-7.446,-15.930,39.490
-0.031,-0.304,1.055,-7.446,-15.625,38.940
-0.025,-0.343,1.054,-8.179,-15.869,36.621
-0.017,-0.387,1.050,-6.592,-16.846,32.837
0.001,-0.402,1.038,-3.601,-18.066,28.809
0.022,-0.396,1.021,0.916,-19.409,24.048
0.043,-0.377,0.999,5.127,-20.691,18.616
0.059,-0.320,0.970,8.911,-21.545,13.733
0.059,-0.246,0.948,12.573,-21.362,9.888
0.064,-0.184,0.930,14.465,-20.325,8.423
0.073,-0.157,0.910,13.306,-19.592,9.460
0.078,-0.142,0.901,9.094,-18.311,11.169
0.078,-0.126,0.906,4.028,-15.747,11.902
0.082,-0.115,0.912,-1.526,-12.573,11.780
0.079,-0.116,0.935,-6.653,-8.301,10.376
0.075,-0.115,0.956,-9.766,-4.883,8.850
0.075,-0.129,0.980,-10.132,-1.892,7.324
0.083,-0.152,0.995,-7.690,1.099,5.188
0.098,-0.168,1.000,-3.845,3.174,1.465
0.102,-0.141,0.993,-0.977,4.761,-3.174
0.105,-0.102,0.989,2.380,6.348,-6.958
0.110,-0.056,0.980,4.822,7.263,-7.751
0.118,-0.016,0.976,4.395,7.141,-6.653
0.114,0.002,0.974,0.977,6.775,-5.737
0.106,0.004,0.974,-4.700,6.226,-4.883
0.102,-0.014,0.968,-8.850,4.944,-3.174
0.101,-0.029,0.956,-9.888,3.235,-1.099
0.102,-0.040,0.954,-8.789,2.075,0.366
0.099,-0.054,0.955,-6.897,1.282,1.160
0.103,-0.059,0.956,-6.409,0.549,1.404
0.101,-0.090,0.961,-6.287,0.488,-0.122
0.093,-0.087,0.977,-4.639,0.366,-0.061
0.101,-0.075,0.987,-2.747,-0.183,1.282
0.097,-0.068,0.994,-1.526,-0.366,0.732
0.093,-0.067,0.995,-1.709,-0.122,-0.488
0.093,-0.068,0.989,-2.625,-0.366,-0.732
0.094,-0.063,0.984,-2.380,-0.427,-0.244
0.092,-0.056,0.987,-1.160,0.305,-0.366
0.086,-0.041,0.992,-1.160,1.099,-0.427
0.085,-0.041,0.994,-1.953,1.526,0.122
0.085,-0.056,0.989,-3.418,1.465,0.793
0.086,-0.070,0.983,-4.333,1.587,1.526
0.088,-0.076,0.980,-4.517,2.258,1.831
