aX,aY,aZ,gX,gY,gZ
0.013,-1.856,0.986,-39.001,-14.099,78.979
0.010,-1.995,0.968,-41.382,-13.855,63.416
0.013,-2.037,0.995,-36.743,-10.437,44.495
0.009,-2.005,1.050,-32.349,-6.409,22.827
0.008,-1.945,1.096,-23.071,-4.639,1.953
0.035,-1.794,1.117,-9.949,-4.089,-18.677
0.056,-1.555,1.134,7.996,-4.456,-41.016
0.067,-1.242,1.137,29.602,-6.470,-64.819
0.098,-0.867,1.084,49.500,-8.911,-85.693
0.138,-0.463,0.980,59.387,-12.329,-102.905
0.174,-0.043,0.887,51.575,-15.320,-114.868
0.184,0.355,0.808,27.893,-16.479,-120.422
0.189,0.662,0.762,1.770,-14.465,-116.638
0.193,0.885,0.756,-20.081,-9.705,-103.149
0.186,0.993,0.807,-36.072,-3.479,-83.557
0.157,1.032,0.901,-44.006,2.319,-63.843
0.102,1.032,1.011,-41.931,6.592,-48.340
0.036,1.016,1.083,-35.156,8.179,-36.377
-0.030,0.959,1.084,-28.625,8.240,-24.780
-0.054,0.768,1.051,-14.954,8.972,-7.812
-0.064,0.483,1.042,2.441,10.620,12.390
-0.098,0.212,1.055,10.254,11.414,23.621
-0.128,0.032,1.058,9.705,10.681,24.475
-0.138,-0.078,1.048,13.123,8.789,22.827
-0.126,-0.175,1.023,22.522,7.935,21.545
-0.109,-0.259,0.999,28.442,7.751,20.447
-0.099,-0.298,0.972,25.024,7.324,16.846
-0.096,-0.310,0.954,19.104,7.141,13.245
-0.097,-0.322,0.944,14.404,6.714,11.414
-0.103,-0.333,0.948,7.446,5.371,10.864
-0.105,-0.331,0.954,-1.282,3.479,10.254
-0.107,-0.317,0.951,-7.751,1.404,9.705
-0.100,-0.298,0.942,-10.437,0.183,9.399
-0.094,-0.271,0.927,-13.062,-0.732,9.521
-0.090,-0.239,0.919,-14.709,-1.282,10.132
-0.086,-0.220,0.921,-14.404,-0.977,11.597
-0.070,-0.197,0.932,-13.245,-0.732,13.672
-0.056,-0.192,0.951,-8.606,0.061,15.930
-0.053,-0.189,0.982,-1.648,0.854,17.334
-0.054,-0.174,1.002,4.517,1.343,16.052
-0.054,-0.140,1.008,5.798,0.488,12.085
-0.063,-0.110,1.006,6.104,-0.549,6.592
-0.064,-0.097,1.005,7.202,-0.977,2.869
-0.067,-0.086,1.001,8.057,-0.854,1.648
-0.060,-0.071,0.991,7.629,0.122,1.526
-0.053,-0.063,0.980,8.057,1.648,2.258
-0.051,-0.058,0.973,8.850,3.662,2.808
-0.051,-0.064,0.974,7.935,5.310,3.113
-0.055,-0.069,0.980,5.615,6.531,2.808
-0.059,-0.066,0.982,2.930,7.080,3.113
-0.065,-0.078,0.988,0.427,7.629,4.578
-0.070,-0.100,0.996,-2.625,7.874,7.202
-0.071,-0.120,1.000,-7.202,7.629,11.047
-0.072,-0.140,1.002,-11.414,6.897,14.771
-0.068,-0.166,1.004,-12.573,5.981,17.578
-0.063,-0.198,1.004,-11.292,5.127,19.104
-0.057,-0.215,1.002,-10.437,4.333,18.250
-0.059,-0.208,1.005,-8.728,3.845,15.320
-0.060,-0.181,1.005,-6.775,3.479,11.963
-0.059,-0.159,1.009,-4.517,3.052,10.193
-0.061,-0.149,1.020,-1.709,2.625,10.620
-0.059,-0.155,1.033,-0.244,2.075,11.475
-0.061,-0.159,1.043,-1.099,0.916,12.207
-0.062,-0.156,1.050,-2.991,-0.305,12.146
-0.061,-0.150,1.043,-4.761,-2.014,11.230
-0.059,-0.146,1.032,-5.432,-3.479,10.254
-0.060,-0.140,1.013,-6.104,-4.456,9.766
-0.058,-0.129,0.997,-7.202,-4.517,9.888
-0.064,-0.116,0.986,-7.568,-4.028,10.193
-0.064,-0.109,0.979,-7.202,-2.991,10.498
-0.062,-0.119,0.974,-6.592,-2.014,10.803
-0.063,-0.136,0.979,-5.005,-0.549,11.353
-0.064,-0.153,0.975,-2.075,0.793,10.986
-0.057,-0.167,0.976,0.916,1.831,9.583
-0.056,-0.167,0.973,2.319,2.930,7.019
-0.058,-0.153,0.975,2.441,4.028,3.967
-0.063,-0.135,0.979,2.319,5.127,1.465
-0.065,-0.129,0.985,3.357,6.104,0.671
-0.061,-0.129,0.991,5.066,6.836,0.854
-0.058,-0.141,0.991,5.798,6.653,1.038
-0.053,-0.143,0.990,5.493,6.348,1.038
-0.053,-0.141,0.992,5.188,5.798,1.038
-0.051,-0.138,0.994,4.761,5.432,1.221
-0.050,-0.133,0.993,2.930,4.761,1.770
-0.052,-0.137,0.999,1.221,4.211,2.441
-0.055,-0.149,0.997,-0.793,3.723,3.235
-0.052,-0.151,0.985,-3.052,2.991,3.601
-0.057,-0.146,0.983,-3.784,3.357,3.784
-0.058,-0.155,0.993,-2.014,3.784,4.211
-0.060,-0.155,1.001,-0.610,4.028,4.150
-0.059,-0.143,1.001,-0.305,3.784,3.235
-0.057,-0.134,0.997,0.671,3.357,2.502
-0.057,-0.122,0.997,0.549,3.052,2.197
-0.058,-0.123,1.001,-0.366,2.808,2.869
-0.059,-0.125,1.006,-1.465,2.380,4.150
-0.055,-0.130,1.002,-1.648,1.892,4.883
-0.051,-0.147,0.997,-1.648,1.648,5.127
-0.053,-0.150,0.991,-1.038,1.770,4.639
-0.055,-0.150,0.989,1.282,2.625,4.211
-0.058,-0.152,0.995,3.540,3.296,4.089
-0.061,-0.147,0.997,4.089,3.784,3.906
-0.061,-0.145,0.995,3.906,3.967,3.967
-0.057,-0.156,0.994,4.456,3.845,4.333
-0.055,-0.158,0.989,3.967,3.601,4.883
-0.053,-0.151,0.984,3.235,3.418,4.822
-0.052,-0.138,0.984,2.869,3.540,4.639
-0.052,-0.125,0.985,2.808,3.540,5.005
-0.051,-0.122,0.988,2.380,3.601,6.104
-0.052,-0.122,0.992,0.183,3.540,6.958
-0.053,-0.130,0.994,-2.075,3.296,7.812
-0.052,-0.139,0.994,-2.869,2.747,8.484
-0.050,-0.145,0.996,-2.930,2.319,9.033
-0.049,-0.158,0.993,-2.319,1.831,9.583
-0.049,-0.159,0.991,-2.747,1.587,9.705
-0.053,-0.156,0.997,-1.343,1.953,9.827
-0.052,-0.157,1.001,1.160,2.441,9.888
-0.052,-0.154,1.000,1.343,2.441,9.521
-0.054,-0.154,1.005,1.831,2.747,9.460
-0.054,-0.152,1.012,2.441,2.502,9.521
0.146,-1.317,1.092,-20.752,-11.047,57.556
0.146,-1.349,1.069,-20.386,-10.498,43.701
0.129,-1.366,1.064,-19.409,-9.888,29.541
0.113,-1.373,1.060,-14.526,-8.850,15.503
0.104,-1.357,1.040,-7.385,-8.606,1.465
0.095,-1.302,1.016,-2.441,-9.033,-13.000
0.085,-1.234,1.001,4.456,-9.460,-27.161
0.077,-1.123,0.995,15.076,-10.437,-39.673
0.076,-0.976,0.975,26.794,-11.658,-49.438
0.080,-0.804,0.946,34.912,-13.794,-55.664
0.075,-0.642,0.930,37.048,-16.174,-59.265
0.068,-0.505,0.916,30.396,-18.494,-60.608
0.062,-0.394,0.893,16.907,-21.301,-60.486
0.074,-0.338,0.872,2.319,-23.682,-59.082
0.112,-0.297,0.835,-8.484,-24.780,-58.044
0.140,-0.213,0.814,-14.709,-22.705,-61.523
0.140,-0.119,0.831,-17.822,-18.005,-72.388
0.142,0.023,0.855,-17.578,-12.207,-86.853
0.168,0.291,0.864,-4.333,-4.639,-98.328
0.173,0.662,0.873,24.536,5.615,-104.980
0.127,1.080,0.929,51.636,18.311,-108.093
0.037,1.419,1.020,60.547,29.114,-103.882
-0.039,1.569,1.139,48.584,35.034,-88.867
-0.080,1.475,1.225,21.851,33.020,-61.646
-0.090,1.198,1.238,-5.554,24.292,-30.151
-0.094,0.853,1.213,-25.085,14.221,-5.554
-0.105,0.538,1.176,-31.494,7.080,9.338
-0.130,0.268,1.161,-23.804,3.906,18.005
-0.144,0.077,1.151,-8.911,2.136,23.376
-0.156,-0.049,1.134,0.610,0.000,24.963
-0.162,-0.141,1.109,3.479,-2.563,22.827
-0.164,-0.206,1.078,2.075,-4.700,20.142
-0.156,-0.266,1.050,-0.793,-7.446,20.081
-0.145,-0.324,1.027,-3.113,-9.827,21.545
-0.128,-0.381,1.007,-5.371,-11.841,23.376
-0.115,-0.411,0.990,-8.667,-13.428,23.682
-0.103,-0.425,0.969,-10.742,-13.977,21.912
-0.092,-0.422,0.961,-9.888,-13.367,19.531
-0.080,-0.411,0.947,-8.545,-12.451,17.334
-0.066,-0.384,0.934,-6.348,-10.803,15.564
-0.063,-0.346,0.938,-1.648,-7.812,14.465
-0.059,-0.301,0.942,3.845,-3.845,13.123
-0.052,-0.252,0.945,9.460,0.488,12.207
-0.054,-0.206,0.949,13.977,4.456,11.230
-0.048,-0.163,0.950,14.343,7.202,8.850
-0.042,-0.133,0.944,11.597,8.057,6.653
-0.041,-0.111,0.947,7.812,7.874,5.066
-0.034,-0.107,0.949,2.991,7.263,3.540
-0.033,-0.100,0.956,-2.747,5.920,2.075
-0.034,-0.094,0.961,-7.935,4.578,1.221
-0.043,-0.088,0.970,-12.329,3.479,1.099
-0.044,-0.091,0.977,-13.794,2.075,2.747
-0.047,-0.097,0.979,-14.038,0.610,5.249
-0.049,-0.093,0.982,-12.878,-0.549,7.080
-0.054,-0.083,0.978,-9.094,-0.732,8.240
-0.053,-0.068,0.975,-4.944,-0.183,9.766
-0.055,-0.061,0.977,-2.197,0.793,11.963
-0.057,-0.058,0.979,-1.343,2.075,14.282
-0.059,-0.050,0.982,-1.770,3.235,16.235
-0.058,-0.052,0.980,-2.136,3.418,17.761
-0.053,-0.065,0.977,-3.174,3.174,18.616
-0.057,-0.084,0.979,-5.066,2.808,19.348
-0.065,-0.096,0.984,-6.592,2.441,19.897
-0.065,-0.114,0.995,-6.470,2.441,20.203
-0.069,-0.126,1.004,-5.737,2.502,19.653
-0.070,-0.129,1.010,-5.371,2.563,18.860
-0.069,-0.132,1.011,-4.639,2.502,17.822
-0.066,-0.143,1.013,-3.296,2.686,16.174
-0.063,-0.151,1.013,-1.526,2.991,13.794
-0.060,-0.160,1.015,1.770,3.967,10.315
-0.060,-0.169,1.016,4.578,4.761,6.165
-0.060,-0.166,1.016,5.615,5.371,1.709
-0.061,-0.155,1.015,6.042,5.859,-1.465
-0.063,-0.132,1.011,6.348,6.042,-3.479
-0.068,-0.114,1.002,5.554,6.104,-4.028
-0.071,-0.112,1.001,2.930,5.920,-3.235
-0.069,-0.116,0.997,-0.671,5.249,-1.770
-0.066,-0.120,0.983,-3.052,4.761,-0.549
-0.062,-0.123,0.974,-4.028,4.517,0.427
-0.064,-0.123,0.977,-3.357,4.883,1.526
-0.065,-0.141,0.989,-3.174,5.066,2.991
-0.064,-0.141,0.993,-4.211,5.127,3.967
-0.058,-0.161,0.989,-3.418,4.578,5.554
-0.055,-0.169,0.990,-2.625,3.967,6.592
-0.055,-0.165,0.996,-0.916,3.784,6.775
-0.061,-0.164,1.008,0.977,3.418,6.653
-0.062,-0.150,1.013,0.000,2.136,5.615
-0.065,-0.132,1.005,0.610,0.977,5.066
-0.060,-0.130,0.997,1.282,0.122,5.127
-0.058,-0.128,0.986,-0.793,-0.610,4.944
-0.056,-0.127,0.975,-1.465,-0.854,4.883
-0.053,-0.128,0.968,-1.038,-0.671,4.822
-0.052,-0.129,0.973,-1.099,0.122,4.944
-0.052,-0.130,0.976,-0.122,1.160,5.188
-0.053,-0.133,0.978,0.916,2.136,4.883
-0.057,-0.139,0.980,1.404,3.357,3.967
-0.052,-0.142,0.976,1.526,4.333,3.601
-0.052,-0.142,0.978,2.258,5.615,3.235
-0.055,-0.144,0.989,3.235,7.202,2.563
-0.056,-0.146,1.000,3.906,7.812,1.770
-0.054,-0.148,1.004,3.662,7.935,1.587
-0.053,-0.146,1.010,3.845,7.568,1.770
-0.049,-0.144,1.009,3.479,7.019,1.709
-0.044,-0.143,1.005,3.296,6.226,2.197
-0.040,-0.149,1.003,3.723,5.676,3.113
-0.039,-0.152,1.001,3.723,4.883,3.784
-0.041,-0.139,0.996,2.502,3.967,4.333
-0.047,-0.132,0.993,0.916,2.808,5.066
-0.044,-0.127,0.989,-0.061,2.319,6.226
-0.044,-0.126,0.990,-0.977,1.770,7.446
-0.043,-0.134,0.990,-2.319,1.648,7.751
-0.038,-0.142,0.990,-3.235,1.648,7.996
-0.040,-0.142,0.997,-2.991,1.709,8.179
-0.045,-0.136,1.000,-2.808,1.404,7.751
-0.047,-0.133,1.001,-3.113,1.343,7.751
-0.048,-0.135,1.007,-3.174,1.038,7.874
-0.046,-0.143,1.006,-3.174,0.610,8.118
-0.044,-0.142,1.003,-2.625,0.244,8.362
-0.044,-0.140,1.000,-1.953,0.244,8.057
-0.247,1.790,1.086,43.945,28.320,-20.935
-0.212,1.547,1.045,8.484,18.372,13.123
-0.100,1.009,1.009,-20.874,6.714,58.533
0.000,0.372,1.023,-44.189,-1.831,97.168
0.039,-0.094,1.049,-62.683,-6.653,111.023
0.077,-0.336,1.091,-61.951,-5.127,108.276
0.079,-0.474,1.179,-34.546,-0.916,104.919
0.077,-0.634,1.282,-2.625,1.587,108.215
0.092,-0.867,1.358,9.399,-2.747,116.638
0.136,-1.124,1.347,-2.563,-13.733,123.596
0.183,-1.398,1.270,-27.466,-26.550,125.366
0.210,-1.651,1.201,-49.072,-34.851,121.155
0.218,-1.876,1.156,-58.960,-37.109,111.511
0.222,-2.038,1.137,-55.664,-35.950,98.022
0.214,-2.117,1.121,-47.974,-32.288,80.017
0.203,-2.148,1.112,-40.344,-28.015,56.335
0.198,-2.117,1.098,-27.649,-24.597,30.457
0.195,-1.999,1.051,-8.118,-21.240,4.395
0.197,-1.792,0.996,18.188,-16.907,-18.860
0.195,-1.499,0.941,46.021,-12.573,-39.612
0.164,-1.144,0.895,67.871,-10.132,-58.289
0.133,-0.809,0.854,80.261,-9.033,-70.862
0.111,-0.507,0.802,80.322,-10.071,-74.890
0.108,-0.259,0.756,68.420,-12.939,-73.853
0.087,-0.033,0.742,47.668,-15.381,-72.021
0.054,0.200,0.735,22.705,-17.395,-72.876
0.047,0.388,0.744,0.183,-18.005,-72.327
0.028,0.554,0.744,-17.273,-18.005,-67.322
0.009,0.693,0.775,-25.452,-15.198,-59.387
-0.013,0.772,0.845,-24.597,-8.789,-49.622
-0.050,0.765,0.936,-19.348,0.366,-41.931
-0.079,0.700,1.027,-12.512,10.559,-36.133
-0.114,0.616,1.098,-7.812,18.005,-32.471
-0.139,0.533,1.135,-3.418,22.278,-31.128
-0.168,0.462,1.136,4.395,23.621,-29.297
-0.191,0.392,1.116,16.052,23.193,-25.879
-0.199,0.334,1.097,27.283,21.973,-18.982
-0.193,0.282,1.071,31.555,20.569,-10.986
-0.182,0.222,1.049,27.771,18.677,-4.639
-0.169,0.132,1.044,20.020,16.174,0.061
-0.156,0.057,1.043,9.521,12.390,3.601
-0.139,0.000,1.029,-3.601,7.263,5.859
-0.130,-0.055,1.013,-17.517,2.258,6.714
-0.113,-0.136,0.994,-24.841,-1.221,9.033
-0.090,-0.223,0.974,-24.597,-3.723,11.902
-0.082,-0.269,0.973,-20.874,-4.944,12.146
-0.084,-0.271,0.977,-15.381,-5.737,9.094
-0.094,-0.243,0.977,-7.996,-6.226,4.578
-0.098,-0.224,0.964,-2.319,-6.042,1.099
-0.098,-0.198,0.952,-0.183,-5.554,-0.427
-0.095,-0.185,0.945,1.953,-4.211,-0.793
-0.095,-0.178,0.945,3.601,-1.465,-1.526
-0.102,-0.166,0.954,3.845,1.770,-2.808
-0.108,-0.157,0.968,2.136,4.395,-4.883
-0.107,-0.144,0.970,-1.465,6.165,-6.775
-0.104,-0.143,0.967,-3.479,8.057,-7.019
-0.102,-0.136,0.964,-3.052,10.193,-6.348
-0.097,-0.127,0.956,-1.648,12.695,-6.287
-0.087,-0.118,0.954,-0.366,14.160,-5.737
-0.077,-0.124,0.965,0.610,14.343,-3.967
-0.064,-0.135,0.977,1.709,14.465,-1.953
-0.059,-0.134,0.990,0.183,13.489,-1.343
-0.057,-0.118,1.000,-3.052,12.512,-1.892
-0.060,-0.104,1.005,-5.310,11.719,-1.770
-0.056,-0.096,1.008,-6.836,10.437,-0.977
-0.056,-0.098,1.014,-8.362,8.850,0.793
-0.052,-0.116,1.018,-9.399,7.507,3.235
-0.046,-0.121,1.013,-10.803,6.653,4.822
-0.043,-0.121,1.004,-10.803,6.226,5.554
-0.047,-0.117,1.009,-8.179,6.470,5.798
-0.049,-0.103,1.015,-6.042,6.775,6.165
-0.057,-0.087,1.032,-4.089,6.653,7.141
-0.057,-0.080,1.043,-2.380,5.737,8.179
-0.056,-0.082,1.051,-1.953,4.211,9.705
-0.055,-0.093,1.051,-1.953,2.319,11.353
-0.056,-0.109,1.051,-2.563,0.427,12.268
-0.058,-0.117,1.044,-5.066,-1.221,12.085
-0.062,-0.118,1.032,-7.629,-2.563,10.864
-0.062,-0.136,1.024,-7.507,-2.563,9.338
-0.059,-0.149,1.018,-5.798,-1.953,8.789
-0.065,-0.148,1.013,-4.150,-1.221,8.057
-0.073,-0.145,1.011,-1.831,0.122,5.798
-0.073,-0.144,1.003,1.770,1.587,3.052
-0.072,-0.145,0.995,4.211,3.296,0.549
-0.072,-0.152,0.987,7.019,4.883,-1.343
-0.070,-0.155,0.984,10.620,6.775,-3.601
-0.074,-0.149,0.986,12.878,8.423,-6.531
-0.079,-0.141,0.995,13.489,9.705,-8.423
-0.081,-0.142,0.998,13.123,9.827,-9.216
-0.082,-0.135,0.997,10.925,8.667,-8.667
-0.081,-0.131,0.987,6.836,7.385,-7.507
-0.079,-0.136,0.981,4.333,6.775,-5.554
-0.075,-0.151,0.976,4.028,6.165,-3.479
-0.070,-0.162,0.972,3.723,5.798,-1.709
-0.065,-0.167,0.967,3.235,5.859,-1.160
-0.064,-0.165,0.968,3.235,5.981,-1.038
-0.067,-0.159,0.974,3.418,5.981,-1.099
-0.067,-0.159,0.980,3.235,5.737,-1.099
-0.066,-0.161,0.981,2.808,5.066,-0.916
-0.064,-0.162,0.982,2.686,4.150,-0.366
-0.063,-0.157,0.983,1.587,3.113,0.061
-0.064,-0.149,0.979,0.366,2.197,0.183
-0.063,-0.137,0.979,-0.549,1.587,0.183
-0.065,-0.129,0.982,-1.038,1.160,0.122
-0.064,-0.129,0.978,-1.343,0.793,0.793
-0.057,-0.127,0.972,-2.014,0.427,1.770
-0.056,-0.132,0.971,-2.991,0.610,2.625
-0.052,-0.139,0.971,-3.357,1.099,3.296
-0.047,-0.146,0.973,-2.930,2.075,3.845
-0.045,-0.151,0.982,-1.587,3.479,3.967
-0.046,-0.157,0.992,-0.488,4.578,3.906
-0.045,-0.161,0.999,0.916,5.432,3.540
-0.038,-0.175,1.000,2.686,6.226,3.235
-0.040,-0.179,1.000,4.272,7.019,2.563
-0.041,-0.184,1.005,6.653,7.690,1.526
-0.043,-0.180,1.012,7.996,7.690,0.427
-0.046,-0.166,1.012,7.446,7.202,-0.488
-0.046,-0.166,1.010,6.897,6.470,-0.549
-0.044,-0.166,1.008,6.165,5.676,-0.488
-0.094,1.587,1.349,34.302,32.898,-43.701
-0.087,1.499,1.313,10.071,23.560,-19.531
-0.028,1.207,1.245,-19.409,10.864,11.353
-0.020,0.819,1.179,-46.387,-0.732,38.208
0.008,0.407,1.113,-60.547,-8.484,61.890
0.048,0.030,1.101,-55.603,-12.390,82.092
0.058,-0.248,1.131,-33.508,-12.451,92.346
0.050,-0.385,1.136,-11.841,-12.207,92.163
0.063,-0.425,1.107,4.272,-14.771,90.576
0.084,-0.495,1.081,17.639,-18.677,93.811
0.111,-0.628,1.043,24.170,-23.682,102.600
0.124,-0.793,1.004,17.761,-29.602,110.352
0.143,-0.947,0.970,5.188,-33.691,114.563
0.148,-1.130,0.945,-3.052,-35.339,116.211
0.150,-1.297,0.921,-10.803,-35.156,113.831
0.136,-1.440,0.906,-13.000,-32.532,107.544
0.124,-1.522,0.884,-9.277,-28.198,96.741
0.103,-1.549,0.874,-4.089,-23.010,82.520
0.053,-1.552,0.866,2.502,-17.517,67.078
0.024,-1.533,0.861,6.836,-13.062,52.124
-0.007,-1.486,0.850,4.028,-10.681,36.743
-0.016,-1.468,0.826,2.014,-9.033,21.851
-0.016,-1.477,0.799,1.587,-8.240,8.606
-0.004,-1.456,0.772,-0.488,-7.629,-5.188
0.011,-1.371,0.753,0.549,-6.470,-21.179
0.019,-1.216,0.758,5.066,-4.700,-37.354
0.012,-1.026,0.791,9.644,-2.991,-50.293
-0.008,-0.833,0.837,12.268,-3.479,-59.448
-0.011,-0.665,0.870,13.367,-5.920,-64.636
-0.002,-0.514,0.876,14.404,-8.911,-66.284
0.001,-0.361,0.864,15.442,-10.071,-67.993
0.011,-0.199,0.851,16.296,-8.301,-69.824
0.017,-0.033,0.843,17.090,-4.944,-70.923
0.025,0.134,0.838,14.954,1.038,-72.266
0.021,0.298,0.838,8.484,8.911,-73.608
0.003,0.405,0.865,2.502,18.066,-72.693
-0.009,0.422,0.911,-2.869,26.123,-67.993
0.005,0.364,0.981,-6.592,31.067,-59.753
-0.008,0.309,1.040,-9.766,32.837,-53.833
-0.019,0.290,1.096,-11.047,33.264,-54.260
-0.046,0.332,1.134,-8.850,32.959,-56.702
-0.076,0.379,1.185,-0.366,32.043,-54.993
-0.103,0.406,1.208,6.042,28.137,-48.645
-0.115,0.407,1.208,5.310,21.729,-40.833
-0.116,0.366,1.184,-0.305,14.038,-33.020
-0.117,0.316,1.129,-6.958,7.324,-25.330
-0.120,0.258,1.081,-11.536,1.953,-17.334
-0.118,0.200,1.052,-13.916,-0.854,-9.277
-0.121,0.142,1.045,-18.982,-2.686,-2.380
-0.115,0.068,1.048,-25.391,-4.456,2.991
-0.112,-0.023,1.059,-31.677,-6.775,6.775
-0.106,-0.130,1.067,-37.292,-9.766,7.263
-0.073,-0.198,1.057,-37.476,-13.428,4.272
-0.071,-0.197,1.035,-29.358,-15.137,-0.977
-0.084,-0.136,1.029,-13.611,-13.245,-7.874
-0.086,-0.040,1.003,-2.380,-11.780,-13.428
-0.096,0.059,0.985,1.648,-10.315,-15.442
-0.108,0.119,0.969,1.587,-7.446,-13.916
-0.117,0.126,0.956,-1.282,-3.601,-10.620
-0.118,0.106,0.948,-5.798,0.061,-6.409
-0.115,0.076,0.947,-7.996,3.906,-2.197
-0.114,0.053,0.959,-7.202,6.714,1.221
-0.106,0.032,0.969,-4.028,8.606,4.150
-0.097,0.000,0.985,-1.099,9.521,6.836
-0.098,-0.033,1.008,0.916,9.277,8.179
-0.088,-0.053,1.020,1.221,8.240,7.874
-0.085,-0.057,1.022,0.244,6.592,6.592
-0.088,-0.047,1.009,0.183,5.432,4.761
-0.090,-0.041,1.001,1.343,4.761,4.395
-0.091,-0.040,1.000,3.113,4.272,5.920
-0.093,-0.040,0.998,2.625,3.418,7.751
-0.093,-0.046,0.991,-0.122,2.258,9.094
-0.096,-0.055,0.986,-1.709,1.831,10.986
-0.094,-0.077,0.988,-1.953,2.014,13.062
-0.091,-0.092,0.988,-2.686,2.014,14.648
-0.089,-0.099,0.986,-2.380,2.380,15.991
-0.089,-0.109,0.999,-0.244,2.808,16.907
-0.086,-0.119,1.002,0.427,2.808,17.822
-0.082,-0.138,1.002,0.122,1.770,18.799
-0.082,-0.146,1.001,1.160,0.854,19.470
-0.072,-0.163,0.998,3.418,0.610,19.287
-0.080,-0.154,1.003,4.700,0.488,18.311
-0.083,-0.148,1.008,6.592,0.854,17.822
-0.088,-0.128,1.018,8.911,0.854,18.555
-0.091,-0.109,1.024,8.728,0.549,19.287
-0.094,-0.097,1.024,5.310,-0.244,18.555
-0.089,-0.093,1.011,2.319,-0.732,18.127
-0.077,-0.107,1.000,1.404,-0.732,17.273
-0.069,-0.125,0.982,1.404,0.427,15.076
-0.066,-0.137,0.968,2.197,2.686,11.597
-0.067,-0.139,0.964,4.639,5.432,7.812
-0.067,-0.132,0.963,7.996,7.935,4.639
-0.074,-0.126,0.969,11.292,10.010,2.258
-0.073,-0.134,0.978,12.939,11.292,0.916
-0.071,-0.153,0.990,14.465,11.353,0.427
-0.068,-0.166,1.000,14.465,10.254,0.427
-0.070,-0.172,1.001,12.451,8.850,-0.061
-0.071,-0.174,1.001,10.925,7.385,-0.549
-0.066,-0.173,0.998,10.315,6.226,-0.488
-0.063,-0.172,0.988,9.460,5.615,0.061
-0.061,-0.173,0.983,9.094,5.554,0.122
-0.063,-0.165,0.982,9.216,5.615,0.183
-0.066,-0.155,0.982,9.705,5.859,0.610
-0.072,-0.149,0.990,9.644,5.981,0.916
-0.073,-0.139,0.989,8.179,5.371,1.038
-0.072,-0.133,0.987,5.981,4.272,1.648
-0.072,-0.135,0.982,3.357,3.052,2.319
-0.070,-0.143,0.979,1.343,1.953,3.479
-0.065,-0.156,0.977,0.854,1.404,4.944
-0.064,-0.172,0.976,0.732,1.221,5.554
-0.067,-0.176,0.982,-0.061,0.916,5.676
-0.073,-0.174,0.988,-0.244,0.916,5.371
-0.071,-0.176,0.994,0.427,0.732,4.883
-0.072,-0.174,0.996,0.916,0.427,4.395
-0.067,-0.170,0.991,0.916,0.000,3.235
-0.068,-0.169,0.980,1.038,0.305,2.014
-0.067,-0.159,0.974,2.075,0.977,1.404
-0.068,-0.149,0.974,3.540,2.136,0.916
-0.070,-0.146,0.979,3.906,3.296,0.183
-0.095,1.729,1.437,45.654,49.377,-66.467
-0.120,1.612,1.443,-4.272,33.936,-45.288
-0.094,1.251,1.383,-54.321,15.930,-19.836
-0.036,0.820,1.295,-87.341,0.244,5.493
-0.039,0.412,1.204,-96.741,-9.338,30.823
-0.014,0.105,1.156,-72.815,-11.108,52.429
0.020,-0.071,1.159,-31.494,-8.728,71.045
0.021,-0.184,1.187,8.179,-6.897,85.266
0.055,-0.256,1.204,25.269,-9.583,95.825
0.086,-0.350,1.188,24.963,-18.860,106.750
0.135,-0.455,1.123,20.752,-29.480,116.943
0.184,-0.551,1.051,16.296,-37.415,124.146
0.206,-0.664,1.005,12.024,-41.748,128.113
0.217,-0.780,0.995,7.629,-43.457,127.930
0.232,-0.848,0.984,7.751,-43.213,125.610
0.204,-0.871,0.985,9.216,-42.297,120.483
0.169,-0.899,0.975,10.010,-40.771,113.892
0.140,-0.954,0.943,8.911,-39.673,110.107
0.111,-1.026,0.890,5.005,-39.307,109.070
0.081,-1.121,0.837,0.427,-38.696,107.910
0.062,-1.242,0.785,-6.714,-37.231,105.286
0.062,-1.423,0.741,-14.404,-35.034,101.685
0.038,-1.654,0.723,-19.897,-31.433,94.788
-0.008,-1.850,0.726,-34.424,-27.771,76.904
-0.048,-1.967,0.730,-53.894,-24.963,48.340
-0.097,-2.006,0.744,-56.519,-21.240,20.447
-0.101,-1.965,0.757,-37.903,-15.503,-2.808
-0.085,-1.809,0.759,-10.925,-10.864,-24.841
-0.078,-1.560,0.793,14.832,-7.202,-45.898
-0.074,-1.224,0.821,34.668,-4.822,-65.796
-0.062,-0.838,0.828,50.598,-4.272,-79.346
-0.056,-0.431,0.812,59.204,-4.456,-84.595
-0.054,-0.063,0.801,55.176,-3.540,-82.886
-0.053,0.211,0.787,39.063,-0.977,-76.721
-0.042,0.370,0.761,17.273,3.723,-67.322
-0.013,0.431,0.744,1.221,11.536,-55.908
-0.022,0.416,0.792,-4.456,21.423,-44.128
-0.023,0.311,0.881,1.587,29.785,-31.616
-0.013,0.185,0.969,14.038,34.180,-20.630
-0.006,0.111,1.026,23.804,36.438,-18.250
-0.008,0.063,1.079,28.992,37.964,-25.146
-0.041,0.047,1.132,33.569,37.048,-36.987
-0.064,0.073,1.155,37.842,34.668,-46.448
-0.082,0.141,1.146,40.527,31.677,-50.659
-0.091,0.206,1.114,38.452,27.710,-49.927
-0.094,0.218,1.084,27.161,23.437,-46.021
-0.104,0.202,1.059,4.517,17.761,-40.771
-0.115,0.151,1.044,-18.860,12.329,-34.424
-0.124,0.054,1.045,-34.119,8.179,-26.245
-0.118,-0.044,1.039,-41.138,4.395,-16.968
-0.112,-0.114,1.027,-39.612,1.892,-9.583
-0.118,-0.181,1.027,-28.931,0.610,-5.615
-0.089,-0.226,1.012,-17.029,-0.854,-4.639
-0.079,-0.226,0.999,-7.751,-2.747,-6.042
-0.066,-0.205,1.001,5.188,-2.991,-9.888
-0.064,-0.142,1.019,14.343,-2.380,-16.724
-0.083,-0.044,1.024,12.268,-2.869,-25.330
-0.100,0.049,1.016,3.723,-5.005,-29.968
-0.103,0.108,0.996,-3.967,-6.287,-29.358
-0.100,0.105,0.975,-10.498,-5.554,-24.292
-0.093,0.055,0.956,-16.785,-2.808,-17.944
-0.088,0.004,0.952,-20.081,1.221,-12.695
-0.091,-0.033,0.967,-18.616,5.554,-9.399
-0.096,-0.070,0.991,-13.916,9.033,-7.324
-0.101,-0.083,1.009,-9.399,10.254,-5.310
-0.100,-0.088,1.019,-4.700,10.437,-4.333
-0.096,-0.092,1.022,0.916,10.132,-3.357
-0.093,-0.091,1.019,3.235,9.277,-2.686
-0.084,-0.093,1.011,3.662,8.179,-2.380
-0.080,-0.097,1.005,4.700,7.507,-1.831
-0.083,-0.099,1.002,2.625,6.653,-2.136
-0.088,-0.096,1.000,-1.282,5.859,-2.136
-0.093,-0.100,0.994,-3.357,4.944,-0.916
-0.090,-0.116,0.992,-3.479,4.578,1.099
-0.084,-0.132,0.986,-2.808,4.456,3.540
-0.081,-0.143,0.981,-2.869,4.517,4.883
-0.076,-0.140,0.982,-2.197,4.700,5.188
-0.074,-0.132,0.986,-0.854,5.615,5.005
-0.078,-0.120,0.995,-1.099,6.042,4.822
-0.082,-0.111,1.007,-2.747,5.737,4.639
-0.083,-0.112,1.020,-4.028,4.761,5.493
-0.081,-0.120,1.022,-4.761,3.113,6.775
-0.081,-0.128,1.019,-5.676,1.648,7.507
-0.086,-0.140,1.014,-6.226,0.916,7.996
-0.089,-0.153,1.016,-4.883,0.549,8.789
-0.091,-0.169,1.018,-2.625,0.366,10.071
-0.090,-0.185,1.017,-1.221,0.244,10.437
-0.094,-0.175,1.013,-0.793,0.305,9.888
-0.096,-0.164,1.008,0.183,0.427,9.583
-0.100,-0.156,1.009,1.160,0.854,10.193
-0.097,-0.145,1.014,1.648,1.038,10.864
-0.099,-0.138,1.014,0.488,1.160,11.475
-0.095,-0.127,1.010,-1.526,1.404,10.498
-0.095,-0.135,1.004,-2.441,1.892,9.155
-0.092,-0.149,1.000,-2.991,2.380,7.568
-0.091,-0.156,0.989,-1.892,3.540,6.165
-0.090,-0.160,0.984,0.122,4.517,4.272
-0.087,-0.157,0.983,1.343,5.554,2.441
-0.088,-0.158,0.989,2.502,6.042,1.221
-0.086,-0.159,0.991,2.869,6.104,0.671
-0.081,-0.165,0.987,2.441,5.798,0.671
-0.074,-0.177,0.978,2.808,5.249,1.160
-0.071,-0.184,0.976,3.967,5.127,1.953
-0.072,-0.183,0.979,5.005,5.493,2.075
-0.072,-0.178,0.980,5.615,5.554,1.953
-0.072,-0.173,0.979,4.944,5.432,2.075
-0.075,-0.174,0.979,3.967,5.371,2.258
-0.077,-0.186,0.982,3.845,5.493,3.052
-0.075,-0.193,0.984,3.723,5.310,3.601
-0.073,-0.196,0.984,3.113,4.700,3.540
-0.073,-0.196,0.987,2.075,4.150,3.357
-0.073,-0.191,0.987,1.465,3.662,2.747
-0.074,-0.186,0.985,0.671,3.174,2.319
-0.075,-0.182,0.986,-0.183,2.686,2.075
-0.076,-0.177,0.987,-1.282,2.075,2.197
-0.078,-0.178,0.989,-1.282,1.892,2.747
-0.078,-0.182,0.987,-1.404,1.465,3.113
-0.076,-0.184,0.977,-1.770,1.099,3.296
-0.076,-0.186,0.976,-1.465,0.977,3.296
-0.163,1.178,1.227,30.151,20.264,5.737
-0.151,1.031,1.147,9.033,8.972,23.621
-0.099,0.748,1.039,-11.353,-0.977,44.556
-0.053,0.439,0.987,-26.550,-6.348,62.195
-0.031,0.178,0.993,-27.466,-6.592,73.425
-0.013,-0.024,1.029,-15.503,-5.737,82.214
0.020,-0.145,1.086,0.000,-4.517,87.341
0.045,-0.174,1.124,12.573,-4.456,87.524
0.067,-0.176,1.152,25.696,-5.981,89.233
0.106,-0.205,1.172,35.400,-10.132,95.764
0.166,-0.254,1.163,37.720,-16.541,104.126
0.211,-0.324,1.179,33.325,-23.743,110.413
0.232,-0.411,1.199,27.405,-30.457,113.770
0.264,-0.511,1.195,24.597,-37.109,117.249
0.279,-0.597,1.180,24.597,-43.762,119.995
0.288,-0.674,1.133,24.719,-48.950,119.812
0.283,-0.719,1.073,22.766,-52.917,118.347
0.256,-0.781,1.025,19.714,-55.176,120.544
0.263,-0.914,0.964,13.916,-56.580,126.099
0.262,-1.122,0.885,3.113,-58.105,128.906
0.271,-1.412,0.795,-13.184,-58.899,125.122
0.218,-1.688,0.694,-34.668,-59.265,115.479
0.169,-1.943,0.635,-48.523,-57.129,98.083
0.128,-2.073,0.574,-57.373,-51.758,75.012
0.105,-2.110,0.556,-54.626,-42.603,47.974
0.067,-2.081,0.581,-43.152,-32.715,20.447
0.048,-1.985,0.581,-27.222,-23.743,-6.104
0.063,-1.841,0.536,-10.193,-15.747,-31.189
0.077,-1.582,0.521,4.333,-8.301,-54.871
0.056,-1.266,0.561,17.944,0.244,-75.806
0.027,-0.968,0.626,29.541,7.629,-90.576
0.005,-0.695,0.685,34.485,12.207,-98.755
-0.006,-0.459,0.711,31.128,15.381,-101.868
0.000,-0.262,0.714,20.142,18.066,-102.478
0.013,-0.098,0.706,6.104,21.118,-102.295
0.027,0.012,0.719,-3.113,25.696,-101.257
0.047,0.093,0.745,-4.150,31.616,-99.426
0.051,0.174,0.805,-2.136,37.720,-98.389
0.039,0.250,0.890,0.671,43.274,-98.267
0.016,0.317,0.978,5.554,47.241,-97.107
-0.011,0.372,1.060,12.451,50.110,-93.872
-0.041,0.395,1.130,18.738,51.147,-88.135
-0.055,0.417,1.177,21.912,49.866,-81.421
-0.065,0.411,1.193,20.203,46.875,-73.486
-0.079,0.381,1.195,14.465,42.114,-64.392
-0.077,0.331,1.194,7.446,36.926,-55.237
-0.072,0.294,1.167,0.244,32.288,-46.570
-0.080,0.277,1.154,-7.141,28.137,-39.307
-0.090,0.249,1.145,-14.343,24.658,-33.325
-0.096,0.183,1.137,-23.376,19.714,-26.550
-0.095,0.095,1.133,-29.419,15.381,-20.813
-0.092,-0.002,1.127,-32.043,10.803,-16.907
-0.090,-0.084,1.123,-30.640,6.409,-15.808
-0.090,-0.138,1.119,-21.973,2.197,-15.381
-0.088,-0.177,1.112,-9.827,-1.221,-15.442
-0.084,-0.194,1.092,-0.549,-4.211,-16.724
-0.079,-0.198,1.076,5.920,-7.019,-18.677
-0.071,-0.187,1.052,11.536,-8.301,-19.775
-0.058,-0.157,1.012,15.137,-7.385,-21.118
-0.058,-0.093,0.968,16.724,-3.784,-22.949
-0.060,-0.052,0.936,14.282,1.099,-22.949
-0.070,-0.029,0.927,4.517,4.700,-21.057
-0.078,-0.034,0.929,-6.348,6.836,-18.433
-0.088,-0.060,0.945,-12.634,7.874,-15.076
-0.092,-0.099,0.962,-15.320,7.996,-11.230
-0.083,-0.120,0.964,-14.954,7.324,-9.033
-0.084,-0.124,0.967,-10.010,7.202,-8.484
-0.085,-0.095,0.967,-2.258,7.629,-9.399
-0.070,-0.047,0.967,4.822,7.629,-10.559
-0.076,0.003,0.967,8.423,8.423,-9.888
-0.093,0.040,0.976,9.033,8.850,-6.897
-0.073,0.055,0.986,10.437,10.010,-2.869
-0.073,0.039,0.989,7.874,9.521,2.625
-0.057,-0.016,0.991,2.869,9.033,8.545
-0.043,-0.075,0.994,-3.662,8.362,13.306
-0.038,-0.133,1.000,-11.536,7.996,13.062
-0.041,-0.161,1.007,-16.602,8.606,9.949
-0.043,-0.170,1.022,-14.343,9.705,7.263
-0.046,-0.171,1.041,-7.080,10.864,5.188
-0.051,-0.172,1.053,0.671,11.353,3.723
-0.064,-0.155,1.059,6.287,10.803,2.686
-0.067,-0.138,1.055,9.644,9.583,1.831
-0.071,-0.109,1.046,9.277,7.141,1.038
-0.075,-0.077,1.040,5.371,4.700,0.854
-0.082,-0.060,1.039,-0.977,2.075,1.709
-0.083,-0.075,1.032,-8.484,-0.793,3.845
-0.078,-0.106,1.022,-13.733,-3.357,6.958
-0.073,-0.133,1.006,-14.526,-4.761,10.071
-0.067,-0.154,0.995,-11.780,-4.883,12.329
-0.064,-0.165,0.986,-8.667,-4.456,14.160
-0.068,-0.161,0.983,-5.859,-3.479,15.137
-0.075,-0.158,0.990,-2.930,-2.319,15.137
-0.076,-0.145,0.987,-1.404,-1.099,13.855
-0.082,-0.130,0.983,0.183,0.244,12.451
-0.086,-0.124,0.987,1.953,2.075,11.108
-0.085,-0.129,0.990,1.770,3.418,9.583
-0.083,-0.149,0.989,0.671,4.272,7.690
-0.081,-0.157,0.989,0.000,4.639,5.005
-0.075,-0.161,0.984,-0.488,5.005,2.197
-0.071,-0.162,0.983,0.488,5.432,0.366
-0.065,-0.163,0.979,1.831,5.249,-0.305
-0.058,-0.165,0.975,2.747,5.188,-0.488
-0.053,-0.165,0.979,3.418,5.432,0.122
-0.050,-0.169,0.991,3.418,5.554,0.977
-0.053,-0.172,1.001,3.052,5.859,1.953
-0.053,-0.173,1.010,2.502,5.432,2.686
-0.052,-0.170,1.010,1.282,4.761,2.808
-0.049,-0.175,1.003,1.221,4.517,2.991
-0.047,-0.184,1.001,1.282,4.333,3.296
-0.045,-0.187,1.001,0.854,4.333,3.296
-0.045,-0.189,1.001,1.221,4.333,3.235
-0.048,-0.188,1.001,2.502,4.333,3.174
-0.047,-0.187,1.001,3.052,4.028,3.113
-0.047,-0.184,1.001,2.319,3.296,3.052
-0.053,-0.185,1.001,2.380,2.625,2.869
-0.056,-0.186,1.000,2.563,1.831,2.930
-0.052,-0.189,0.996,2.502,1.038,3.418
-0.054,-0.191,0.989,1.831,0.244,3.540
-0.058,-0.193,0.985,0.244,-0.244,3.418
-0.106,1.942,1.524,112.915,54.260,-82.031
-0.271,2.183,1.729,124.390,50.720,-63.110
-0.315,2.168,1.686,104.248,31.494,-21.545
-0.215,1.844,1.467,55.969,1.892,35.522
-0.041,1.231,1.172,-0.916,-24.719,88.196
0.061,0.491,0.979,-43.762,-39.551,126.587
0.162,-0.196,0.924,-59.509,-43.457,149.841
0.201,-0.629,0.940,-58.350,-39.063,156.982
0.224,-0.825,0.980,-38.635,-32.104,148.010
0.225,-0.880,1.026,-8.118,-25.024,134.094
0.225,-0.874,1.070,22.644,-21.973,125.610
0.250,-0.863,1.068,41.504,-24.902,122.253
0.291,-0.883,1.027,40.466,-32.166,121.582
0.326,-0.946,0.980,25.696,-39.185,120.972
0.345,-1.021,0.954,9.705,-42.786,119.568
0.333,-1.108,0.970,-2.930,-43.945,115.784
0.313,-1.192,0.974,-11.536,-44.189,110.718
0.288,-1.243,0.966,-13.306,-43.457,105.469
0.251,-1.282,0.942,-9.277,-41.687,98.145
0.216,-1.290,0.885,-6.531,-40.344,88.074
0.173,-1.262,0.813,-4.333,-39.124,76.172
0.111,-1.233,0.761,-0.732,-37.292,64.880
0.094,-1.222,0.705,3.967,-35.522,55.542
0.077,-1.235,0.663,7.507,-33.997,48.401
0.058,-1.284,0.633,10.437,-31.189,39.490
0.051,-1.330,0.607,8.606,-28.748,27.344
0.041,-1.327,0.584,5.310,-25.208,13.428
0.025,-1.295,0.573,2.441,-20.020,-1.404
0.008,-1.244,0.567,-1.709,-14.282,-16.052
0.003,-1.142,0.567,-4.272,-8.972,-27.466
-0.005,-1.019,0.612,-0.488,-3.662,-34.607
-0.026,-0.869,0.662,4.700,1.648,-41.626
-0.026,-0.722,0.695,7.141,6.531,-47.424
-0.039,-0.583,0.722,6.653,11.353,-50.537
-0.044,-0.474,0.738,3.723,16.724,-50.537
-0.050,-0.373,0.758,-0.061,22.827,-50.964
-0.063,-0.291,0.790,-2.808,28.076,-52.429
-0.069,-0.213,0.823,-3.906,32.043,-53.894
-0.070,-0.132,0.848,-5.615,34.119,-54.199
-0.070,-0.077,0.875,-7.874,35.278,-53.406
-0.056,-0.081,0.905,-7.751,35.645,-50.354
-0.025,-0.122,0.926,-5.615,35.461,-45.166
0.006,-0.131,0.944,-7.629,34.485,-45.044
0.005,-0.106,0.968,-14.343,34.546,-50.476
-0.005,-0.048,1.003,-16.724,36.011,-56.946
-0.027,0.028,1.048,-13.977,36.987,-59.509
-0.055,0.085,1.096,-9.033,36.499,-57.983
-0.065,0.128,1.136,-5.920,33.752,-53.833
-0.083,0.141,1.150,-7.263,28.320,-48.096
-0.086,0.137,1.138,-11.780,22.095,-42.542
-0.085,0.107,1.113,-17.578,15.869,-36.987
-0.075,0.055,1.087,-20.203,11.658,-32.349
-0.078,-0.013,1.074,-19.409,8.667,-28.809
-0.065,-0.072,1.062,-12.756,7.080,-25.696
-0.047,-0.109,1.052,-7.629,5.432,-26.306
-0.049,-0.091,1.042,-6.775,3.967,-29.968
-0.063,-0.075,1.040,-7.263,2.808,-33.691
-0.051,-0.057,1.032,-6.287,2.197,-34.485
-0.050,-0.053,1.017,-5.737,1.465,-31.738
-0.046,-0.066,1.009,-5.981,1.709,-28.137
-0.047,-0.075,1.003,-10.376,1.892,-25.391
-0.037,-0.079,0.986,-16.174,2.991,-24.170
-0.039,-0.074,0.973,-21.301,4.761,-24.109
-0.054,-0.064,0.976,-25.391,6.653,-24.963
-0.057,-0.081,0.982,-26.611,7.812,-23.804
-0.057,-0.082,0.985,-23.437,7.812,-22.156
-0.057,-0.072,0.982,-15.808,7.996,-21.057
-0.058,-0.042,0.976,-7.812,8.423,-20.508
-0.056,-0.011,0.959,-2.380,8.240,-20.142
-0.051,0.020,0.948,2.625,8.850,-18.188
-0.054,0.049,0.951,6.165,10.010,-15.503
-0.049,0.057,0.964,4.883,11.047,-12.451
-0.047,0.054,0.980,-0.854,10.864,-8.667
-0.048,0.028,1.000,-6.653,10.498,-5.188
-0.045,-0.002,1.025,-11.047,10.010,-2.014
-0.039,-0.024,1.043,-13.184,9.033,0.854
-0.035,-0.046,1.057,-12.512,8.240,2.380
-0.037,-0.060,1.060,-11.292,7.202,2.686
-0.037,-0.054,1.057,-8.240,6.348,2.747
-0.040,-0.042,1.053,-4.150,5.981,2.563
-0.047,-0.032,1.053,-0.610,5.615,2.747
-0.055,-0.031,1.050,0.671,4.700,3.479
-0.061,-0.033,1.045,-0.183,3.723,4.395
-0.062,-0.036,1.039,-1.343,3.052,5.920
-0.065,-0.048,1.035,-2.319,2.014,8.362
-0.067,-0.069,1.033,-3.906,1.404,10.437
-0.067,-0.093,1.032,-4.822,0.854,12.451
-0.068,-0.119,1.042,-3.845,0.854,14.343
-0.062,-0.144,1.044,-1.526,0.671,16.174
-0.062,-0.163,1.044,0.610,0.061,16.785
-0.056,-0.172,1.033,1.282,-0.305,15.930
-0.055,-0.177,1.026,2.197,-0.427,14.832
-0.059,-0.178,1.021,2.747,0.000,13.367
-0.055,-0.173,1.014,3.174,0.488,12.695
-0.057,-0.170,1.005,3.418,0.977,11.536
-0.057,-0.165,0.994,4.089,1.831,9.705
-0.060,-0.165,0.989,4.761,2.686,8.606
-0.059,-0.173,0.987,4.578,3.113,7.812
-0.051,-0.181,0.977,3.540,2.991,6.958
-0.046,-0.189,0.970,2.747,3.296,5.920
-0.042,-0.202,0.974,3.052,3.845,4.578
-0.037,-0.224,0.986,4.333,4.517,4.150
-0.032,-0.231,0.989,5.737,4.456,3.784
-0.029,-0.225,0.989,5.066,4.456,2.441
-0.030,-0.218,0.987,4.395,4.333,1.160
-0.027,-0.218,0.982,4.700,4.211,1.038
-0.022,-0.217,0.977,5.371,4.150,1.526
-0.022,-0.216,0.974,5.493,4.211,1.648
-0.025,-0.209,0.970,3.967,4.272,1.160
-0.029,-0.200,0.968,1.343,4.211,0.671
-0.033,-0.198,0.969,-0.549,4.028,0.793
-0.035,-0.199,0.968,-0.854,4.028,1.038
-0.032,-0.198,0.968,-1.038,3.845,1.343
-0.034,-0.191,0.974,-1.587,3.784,1.343
-0.035,-0.182,0.978,-2.197,3.479,1.221
-0.031,-0.185,0.977,-2.258,2.686,1.587
-0.030,-0.185,0.978,-3.174,2.014,1.831
-0.029,-0.186,0.979,-3.418,1.770,1.526
-0.031,-0.184,0.977,-2.747,1.587,0.854
-0.146,1.362,1.278,10.254,25.024,-13.245
-0.169,1.269,1.265,1.343,17.700,12.756
-0.143,1.048,1.191,-5.005,6.775,46.326
-0.088,0.718,1.097,-9.094,-2.258,79.956
-0.015,0.337,1.041,-11.841,-7.935,105.591
0.047,-0.051,1.023,-11.841,-9.277,118.347
0.096,-0.364,1.034,-8.972,-8.057,118.408
0.103,-0.541,1.071,-2.258,-6.287,111.206
0.118,-0.626,1.104,8.911,-5.310,102.478
0.135,-0.686,1.126,23.743,-6.287,98.206
0.147,-0.757,1.133,35.034,-9.277,97.778
0.187,-0.856,1.092,37.903,-14.160,98.450
0.218,-0.935,1.034,29.358,-20.020,96.680
0.248,-0.999,0.974,18.799,-23.621,91.675
0.230,-1.054,0.927,10.925,-24.658,85.632
0.218,-1.127,0.900,8.118,-23.010,79.773
0.197,-1.190,0.881,5.127,-21.179,74.280
0.180,-1.255,0.866,3.845,-19.287,67.139
0.131,-1.278,0.835,-0.183,-18.127,56.763
0.105,-1.303,0.807,-1.709,-16.235,44.617
0.076,-1.303,0.792,-2.502,-15.015,33.936
0.058,-1.302,0.770,-1.526,-13.672,23.804
0.057,-1.288,0.742,0.977,-12.451,12.939
0.061,-1.257,0.722,4.639,-10.315,1.953
0.059,-1.183,0.716,6.531,-7.751,-10.010
0.058,-1.094,0.728,5.920,-5.676,-21.362
0.046,-1.000,0.751,4.333,-3.723,-31.677
0.039,-0.906,0.773,4.272,-2.136,-40.466
0.035,-0.807,0.790,6.226,-1.221,-46.814
0.027,-0.700,0.810,10.254,0.305,-52.429
0.021,-0.581,0.826,12.695,1.831,-57.312
0.027,-0.471,0.834,13.428,3.052,-60.547
0.038,-0.347,0.829,14.404,5.432,-62.500
0.041,-0.216,0.830,15.320,9.705,-65.247
0.040,-0.095,0.848,11.353,15.137,-68.237
0.030,0.002,0.885,3.540,19.714,-70.801
0.038,0.075,0.916,-5.005,22.522,-72.083
0.039,0.147,0.944,-11.414,23.926,-73.181
0.029,0.182,0.986,-14.465,25.146,-73.547
0.021,0.204,1.033,-12.085,25.574,-72.083
0.019,0.229,1.066,-6.226,24.902,-70.618
0.010,0.299,1.080,2.258,23.743,-69.763
-0.004,0.390,1.094,14.709,23.376,-67.871
-0.031,0.494,1.109,25.635,23.376,-62.561
-0.054,0.564,1.118,25.940,21.790,-53.467
-0.073,0.578,1.127,15.808,18.372,-42.114
-0.086,0.540,1.129,1.343,13.428,-29.175
-0.090,0.456,1.115,-10.559,8.606,-15.747
-0.091,0.346,1.099,-16.418,4.883,-3.479
-0.082,0.232,1.081,-17.639,2.380,6.531
-0.069,0.120,1.067,-16.968,0.854,13.611
-0.055,0.000,1.080,-14.648,-0.183,15.930
-0.062,-0.074,1.087,-14.160,-1.831,14.282
-0.071,-0.106,1.086,-15.137,-4.272,10.925
-0.075,-0.122,1.071,-12.573,-6.104,8.545
-0.074,-0.145,1.047,-8.728,-7.690,8.301
-0.058,-0.171,1.020,-6.897,-8.240,9.521
-0.045,-0.197,1.002,-6.714,-8.057,9.949
-0.041,-0.231,0.993,-7.263,-6.226,9.460
-0.037,-0.236,0.975,-7.080,-3.418,8.423
-0.035,-0.231,0.962,-4.517,0.305,6.775
-0.039,-0.220,0.960,-1.404,3.662,5.981
-0.042,-0.213,0.966,-0.244,5.798,6.104
-0.042,-0.215,0.967,-0.122,6.470,6.165
-0.037,-0.214,0.965,0.061,6.348,6.042
-0.032,-0.210,0.959,0.061,6.104,5.615
-0.031,-0.205,0.955,-0.244,6.042,4.822
-0.030,-0.196,0.956,0.122,6.409,4.150
-0.025,-0.199,0.966,1.221,6.775,4.028
-0.024,-0.213,0.982,1.709,6.836,3.845
-0.019,-0.220,0.989,1.038,6.165,3.113
-0.016,-0.227,0.990,-0.183,5.188,2.258
-0.012,-0.217,0.989,0.305,4.639,1.587
-0.013,-0.208,0.993,2.686,4.578,1.343
-0.013,-0.195,0.999,4.822,4.517,1.221
-0.014,-0.181,1.001,6.104,4.517,1.404
-0.018,-0.152,1.003,6.531,4.150,1.831
-0.023,-0.137,1.006,5.798,3.723,2.808
-0.028,-0.137,1.008,2.563,2.563,4.028
-0.032,-0.143,1.010,-1.038,1.221,5.493
-0.033,-0.147,1.012,-3.723,-0.061,7.080
-0.036,-0.151,1.011,-5.066,-1.221,8.118
-0.038,-0.155,1.007,-5.005,-2.136,8.911
-0.036,-0.152,1.001,-4.395,-2.625,9.949
-0.033,-0.147,0.997,-3.357,-2.686,10.620
-0.037,-0.138,0.998,-1.343,-2.258,11.719
-0.043,-0.127,1.001,-1.404,-1.587,12.512
-0.047,-0.126,1.003,-1.343,-0.977,13.489
-0.046,-0.130,1.000,-0.427,-0.366,13.123
-0.043,-0.151,0.993,-0.488,0.793,11.597
-0.044,-0.176,0.982,-1.343,2.075,9.705
-0.044,-0.193,0.973,-1.465,4.028,7.080
-0.048,-0.193,0.974,0.427,5.737,4.272
-0.054,-0.195,0.986,3.967,7.202,1.953
-0.055,-0.193,0.990,5.920,7.751,0.305
-0.049,-0.193,0.987,5.432,7.324,-0.610
-0.044,-0.194,0.977,4.272,6.409,-0.977
-0.037,-0.198,0.976,3.418,5.798,-0.854
-0.034,-0.201,0.978,2.319,5.188,-0.122
-0.028,-0.202,0.976,0.732,4.822,0.488
-0.027,-0.203,0.979,1.404,4.822,1.465
-0.027,-0.207,0.984,2.258,5.188,2.075
-0.030,-0.203,0.988,1.404,5.310,2.136
-0.030,-0.205,0.991,1.648,5.188,2.258
-0.026,-0.212,0.990,2.441,5.066,2.563
-0.024,-0.213,0.989,1.404,4.395,2.441
-0.023,-0.211,0.990,0.427,3.906,2.075
-0.025,-0.206,0.996,1.099,3.601,1.770
-0.026,-0.205,1.001,2.625,3.235,1.770
-0.022,-0.204,1.001,3.174,2.319,1.648
-0.020,-0.195,1.000,3.723,1.526,1.953
-0.019,-0.188,1.000,3.662,1.038,1.892
-0.022,-0.181,0.998,1.465,0.549,1.770
-0.023,-0.181,0.994,-1.404,-0.122,1.831
-0.024,-0.183,0.991,-3.784,-0.671,2.014
-0.025,-0.192,0.989,-5.249,-0.977,1.770
-0.026,-0.208,0.980,-5.005,-0.916,1.709
-0.024,-0.217,0.969,-3.967,-0.122,1.282
-0.026,-0.218,0.960,-1.953,1.160,0.854
-0.058,1.658,1.363,78.064,46.082,-62.195
-0.196,1.885,1.537,95.886,45.715,-37.903
-0.254,1.885,1.576,83.008,33.447,-0.793
-0.222,1.592,1.468,41.748,10.742,48.828
-0.095,1.068,1.254,-8.362,-13.062,95.886
0.011,0.440,1.103,-38.940,-28.992,133.240
0.111,-0.118,0.996,-45.898,-34.180,152.954
0.161,-0.503,0.943,-40.955,-32.166,156.250
0.192,-0.747,0.934,-23.071,-25.391,148.743
0.203,-0.871,0.965,1.709,-18.311,139.709
0.213,-0.936,1.007,21.851,-14.587,132.019
0.228,-0.977,1.033,27.466,-16.602,125.366
0.254,-1.026,1.020,17.517,-22.766,118.896
0.276,-1.114,0.995,3.479,-29.419,113.647
0.299,-1.228,0.965,-6.775,-33.630,109.558
0.316,-1.326,0.937,-11.353,-34.790,105.530
0.313,-1.389,0.914,-10.132,-32.898,98.083
0.291,-1.414,0.896,-6.104,-29.297,86.731
0.264,-1.398,0.868,-1.465,-24.719,72.632
0.222,-1.351,0.842,2.808,-20.447,55.237
0.177,-1.298,0.815,7.324,-17.090,38.208
0.143,-1.248,0.786,12.085,-15.015,23.315
0.117,-1.171,0.760,16.968,-13.794,10.010
0.100,-1.072,0.744,21.606,-13.062,-1.221
0.075,-0.981,0.737,22.278,-12.817,-10.254
0.063,-0.902,0.733,17.944,-12.939,-16.724
0.057,-0.841,0.724,12.268,-13.428,-20.691
0.050,-0.774,0.713,5.188,-13.184,-23.743
0.047,-0.710,0.708,-1.221,-11.780,-25.391
0.045,-0.643,0.711,-4.517,-9.338,-24.658
0.046,-0.587,0.719,-5.676,-5.615,-22.400
0.037,-0.533,0.752,-5.127,-0.366,-18.555
0.034,-0.510,0.782,-2.747,5.371,-13.306
0.035,-0.509,0.814,-2.258,11.780,-10.986
0.040,-0.530,0.850,-2.014,18.311,-11.108
0.057,-0.546,0.873,0.366,23.621,-15.747
0.075,-0.523,0.881,5.493,27.527,-24.292
0.084,-0.466,0.895,9.705,30.212,-35.522
0.075,-0.398,0.921,8.972,31.433,-48.035
0.058,-0.331,0.944,5.554,31.250,-58.777
0.045,-0.251,0.957,4.395,30.334,-64.270
0.032,-0.180,0.970,3.113,28.625,-65.796
0.021,-0.137,0.990,-1.953,25.818,-65.430
0.022,-0.143,1.007,-7.568,22.095,-62.744
0.031,-0.172,1.005,-13.916,17.212,-61.340
0.032,-0.171,0.995,-19.775,12.756,-63.904
0.031,-0.148,0.983,-19.104,10.132,-66.956
0.028,-0.111,0.982,-11.780,9.399,-68.665
0.030,-0.074,0.984,-6.775,9.216,-70.374
0.014,-0.031,0.989,-6.226,9.033,-71.167
-0.003,0.008,0.988,-2.869,9.521,-69.824
-0.013,0.048,0.998,2.197,10.803,-66.895
-0.026,0.111,1.013,3.723,11.475,-64.392
-0.044,0.186,1.035,1.709,11.230,-62.622
-0.062,0.258,1.053,-3.357,10.071,-60.669
-0.072,0.310,1.061,-9.521,7.751,-55.969
-0.073,0.339,1.058,-16.846,5.066,-48.279
-0.073,0.340,1.050,-25.452,3.235,-39.490
-0.063,0.301,1.044,-31.677,2.563,-30.151
-0.056,0.245,1.045,-35.217,2.686,-20.874
-0.056,0.197,1.055,-35.034,3.662,-13.062
-0.053,0.135,1.062,-31.860,5.066,-6.531
-0.050,0.087,1.065,-27.405,5.493,-1.343
-0.043,0.032,1.069,-20.203,5.981,3.174
-0.035,-0.027,1.067,-12.085,5.920,6.775
-0.033,-0.067,1.062,-8.118,5.188,7.324
-0.033,-0.103,1.054,-7.263,4.578,5.676
-0.036,-0.130,1.040,-6.897,3.906,3.723
-0.036,-0.132,1.021,-4.089,3.601,2.747
-0.036,-0.124,1.004,1.160,4.333,1.953
-0.040,-0.109,0.996,3.601,4.944,0.977
-0.044,-0.086,0.991,2.136,5.066,1.160
-0.043,-0.094,0.997,0.122,4.761,2.441
-0.037,-0.131,0.991,-3.845,4.089,4.456
-0.026,-0.160,0.980,-7.935,3.113,6.165
-0.018,-0.182,0.978,-7.263,2.991,6.836
-0.017,-0.206,0.987,-4.211,3.479,7.019
-0.017,-0.206,0.996,-1.343,3.662,6.470
-0.013,-0.213,0.998,2.319,3.479,5.676
-0.018,-0.212,1.000,4.761,2.991,5.005
-0.021,-0.194,0.999,5.798,2.808,4.700
-0.027,-0.173,1.001,6.531,2.625,4.761
-0.031,-0.157,1.007,4.700,1.709,4.944
-0.036,-0.141,1.009,0.183,0.732,5.615
-0.036,-0.138,1.010,-2.869,0.061,7.507
-0.032,-0.143,1.011,-4.761,-0.732,9.460
-0.025,-0.153,1.010,-6.226,-1.343,10.803
-0.019,-0.166,1.004,-6.409,-1.587,11.902
-0.016,-0.173,1.001,-5.310,-1.221,12.329
-0.018,-0.165,1.004,-3.601,-0.244,11.902
-0.023,-0.157,1.008,-0.854,0.854,11.047
-0.022,-0.155,1.009,2.075,1.709,10.803
-0.025,-0.154,1.009,3.296,2.441,9.888
-0.027,-0.161,1.006,4.150,3.174,8.911
-0.026,-0.174,1.000,5.310,3.967,7.690
-0.025,-0.181,0.994,6.348,4.456,6.287
-0.025,-0.180,0.987,6.897,4.761,4.211
-0.024,-0.176,0.980,6.531,4.761,2.136
-0.024,-0.177,0.976,5.798,4.700,1.038
-0.023,-0.182,0.969,5.493,4.639,0.977
-0.020,-0.188,0.961,4.517,4.272,1.587
-0.017,-0.206,0.956,4.089,4.211,2.502
-0.014,-0.233,0.961,3.906,4.211,3.174
-0.014,-0.247,0.966,3.906,4.333,3.296
-0.014,-0.247,0.969,4.822,4.761,3.418
-0.013,-0.237,0.975,6.226,5.066,3.174
-0.012,-0.224,0.978,6.897,5.188,2.808
-0.013,-0.210,0.981,6.897,5.188,2.808
-0.017,-0.207,0.985,5.615,4.761,2.930
-0.017,-0.207,0.987,3.052,4.028,3.174
-0.016,-0.213,0.987,0.977,3.174,3.784
-0.016,-0.218,0.985,-0.916,2.258,4.028
-0.012,-0.227,0.982,-1.831,1.526,4.272
-0.009,-0.237,0.979,-1.038,1.038,4.395
-0.009,-0.238,0.981,-0.061,0.977,4.395
-0.014,-0.228,0.985,0.732,0.854,4.211
-0.016,-0.226,0.987,1.038,0.671,3.784
-0.018,-0.219,0.989,1.099,0.549,3.479
-0.019,-0.216,0.984,0.854,0.427,2.747
-0.219,1.830,1.351,34.180,40.344,-81.604
-0.260,1.768,1.376,25.696,33.142,-41.077
-0.207,1.453,1.317,10.071,21.240,10.681
-0.113,0.985,1.223,-10.437,4.639,57.678
-0.013,0.535,1.117,-29.114,-6.287,88.379
0.064,0.154,1.040,-33.936,-12.756,108.459
0.129,-0.128,1.005,-27.649,-13.550,118.408
0.188,-0.312,1.006,-12.085,-11.414,125.000
0.239,-0.431,1.049,6.165,-10.193,130.127
0.288,-0.502,1.081,16.785,-12.451,133.972
0.329,-0.578,1.084,15.625,-17.334,136.658
0.375,-0.696,1.058,9.644,-24.109,138.672
0.403,-0.822,1.036,0.732,-30.396,138.977
0.423,-0.939,1.009,-5.066,-34.485,139.404
0.406,-1.008,1.016,-8.057,-36.926,137.329
0.374,-1.038,1.012,-10.925,-38.940,134.033
0.339,-1.064,0.999,-9.583,-39.978,131.592
0.305,-1.065,0.975,-3.784,-39.307,129.883
0.281,-1.035,0.933,2.441,-38.635,128.845
0.253,-1.041,0.900,8.911,-37.781,128.601
0.254,-1.146,0.852,13.977,-37.292,128.601
0.282,-1.332,0.797,15.076,-37.842,124.512
0.270,-1.505,0.760,8.057,-38.452,109.314
0.244,-1.584,0.734,-6.775,-37.720,82.520
0.206,-1.579,0.729,-15.747,-34.119,52.490
0.153,-1.512,0.748,-13.916,-28.503,24.963
0.114,-1.441,0.770,-5.127,-23.499,2.502
0.094,-1.379,0.781,9.827,-19.470,-15.198
0.091,-1.312,0.762,25.452,-16.296,-31.616
0.102,-1.169,0.716,33.752,-13.123,-49.438
0.106,-0.947,0.665,38.330,-8.362,-65.857
0.089,-0.718,0.650,41.199,-1.160,-77.515
0.067,-0.520,0.666,35.828,7.019,-82.275
0.040,-0.368,0.715,22.522,15.137,-82.886
0.018,-0.298,0.775,7.507,21.912,-80.994
0.012,-0.295,0.811,-7.874,26.672,-79.773
0.016,-0.312,0.837,-17.700,30.029,-81.299
0.022,-0.316,0.861,-15.381,33.142,-84.900
0.031,-0.298,0.894,-2.991,36.621,-88.684
0.040,-0.233,0.938,13.977,40.283,-92.773
0.044,-0.126,0.979,28.992,43.091,-97.473
0.026,0.015,1.029,37.537,44.312,-100.342
0.000,0.188,1.060,38.025,43.518,-100.830
-0.014,0.318,1.078,29.358,40.710,-96.497
-0.033,0.390,1.083,9.399,35.645,-88.745
-0.035,0.386,1.077,-12.024,29.785,-77.820
-0.022,0.314,1.060,-28.320,24.841,-66.162
-0.018,0.258,1.061,-35.400,22.278,-57.007
-0.026,0.235,1.091,-31.006,22.583,-50.415
-0.041,0.224,1.133,-21.362,22.766,-45.044
-0.050,0.223,1.149,-13.794,20.386,-40.161
-0.046,0.219,1.142,-8.545,16.663,-34.424
-0.035,0.191,1.119,-6.226,12.817,-28.992
-0.028,0.147,1.105,-6.775,9.155,-24.902
-0.020,0.100,1.088,-7.324,6.042,-21.729
-0.019,0.069,1.071,-8.179,3.174,-19.592
-0.005,0.063,1.063,-9.033,1.221,-18.799
-0.016,0.072,1.059,-9.338,0.183,-17.578
-0.014,0.070,1.049,-8.057,-0.183,-14.282
-0.011,0.048,1.032,-9.644,-0.427,-10.376
-0.015,0.021,1.022,-11.353,0.732,-7.324
-0.017,-0.012,1.014,-9.583,3.479,-4.333
-0.014,-0.054,1.005,-7.751,5.859,-2.380
-0.008,-0.090,0.995,-7.690,7.080,-1.587
-0.003,-0.119,0.983,-6.775,7.507,-1.282
-0.004,-0.129,0.976,-5.981,7.690,-1.465
-0.006,-0.125,0.973,-3.845,8.118,-1.587
-0.012,-0.123,0.979,-1.099,8.240,-1.282
-0.030,-0.113,0.974,-0.366,7.751,-0.916
-0.008,-0.108,0.979,-0.916,7.202,-0.366
-0.012,-0.114,0.972,-4.028,5.981,0.916
-0.013,-0.134,0.969,-6.958,5.432,2.319
-0.007,-0.152,0.959,-10.071,5.005,3.296
-0.006,-0.167,0.954,-9.949,5.249,3.540
-0.012,-0.168,0.957,-8.240,5.920,4.150
-0.015,-0.157,0.960,-5.615,7.141,4.944
-0.016,-0.151,0.967,-3.174,8.057,5.615
-0.018,-0.144,0.978,-2.686,8.728,6.042
-0.020,-0.142,0.991,-2.625,8.728,6.592
-0.023,-0.134,1.003,-2.197,8.240,7.019
-0.022,-0.135,1.010,-2.197,7.507,7.385
-0.017,-0.143,1.012,-2.258,6.042,7.935
-0.015,-0.158,1.017,-1.953,4.761,8.545
-0.012,-0.171,1.021,-1.221,3.662,9.094
-0.011,-0.176,1.026,-0.488,2.747,9.521
-0.016,-0.168,1.034,-0.366,1.709,9.460
-0.022,-0.171,1.041,-0.244,0.793,9.888
-0.017,-0.150,1.030,1.099,-0.366,12.939
-0.020,-0.156,1.027,-0.122,-1.038,13.489
-0.025,-0.154,1.032,-3.235,-1.465,12.512
-0.021,-0.149,1.025,-4.944,-2.808,15.259
-0.018,-0.150,1.017,-4.700,-3.296,16.052
-0.016,-0.150,1.001,-5.432,-3.418,15.442
-0.010,-0.155,0.986,-5.432,-2.563,14.465
-0.005,-0.166,0.969,-4.028,-0.793,12.329
-0.004,-0.177,0.966,-1.892,2.075,10.010
-0.008,-0.190,0.973,0.732,4.883,7.324
-0.010,-0.196,0.980,3.357,7.202,4.517
-0.011,-0.199,0.989,5.737,8.667,2.441
-0.008,-0.200,0.997,6.531,8.850,0.916
-0.007,-0.193,0.998,5.798,8.301,-0.244
-0.005,-0.187,0.995,4.761,7.263,-0.610
-0.003,-0.194,0.992,3.662,6.165,0.671
0.002,-0.200,0.988,2.686,5.127,2.075
0.005,-0.217,0.986,1.465,4.517,3.052
0.007,-0.228,0.982,1.099,4.395,3.601
0.007,-0.226,0.977,0.854,4.272,3.296
0.004,-0.213,0.976,0.671,4.395,2.625
0.003,-0.204,0.974,1.099,4.578,2.258
0.003,-0.196,0.972,0.854,4.639,2.258
-0.000,-0.194,0.973,-0.549,4.639,2.136
-0.002,-0.202,0.978,-1.465,4.456,2.502
-0.001,-0.206,0.985,-1.770,4.333,3.052
0.002,-0.209,0.990,-1.648,3.723,3.174
0.000,-0.204,0.995,-1.282,3.418,2.441
-0.000,-0.192,0.997,-1.099,2.869,1.587
0.000,-0.181,0.996,-0.793,2.258,1.404
-0.000,-0.175,0.997,-1.038,1.587,1.770
0.000,-0.174,0.994,-1.953,0.977,1.831
